File: data/XRD/BRUCITE.PRN
   5.000       198
   5.100       201
   5.200       169
   5.300       148
   5.400       171
   5.500       176
   5.600       161
   5.700       169
   5.800       158
   5.900       153
   6.000       139
   6.100       151
   6.200       132
   6.300       169
   6.400       121
   6.500       134
   6.600       125
   6.700       121
   6.800       129
   6.900       110
   7.000       114
   7.100       121
   7.200       127
   7.300       110
   7.400       123
   7.500       121
   7.600       118
   7.700       118
   7.800       114
   7.900        86
   8.000       129
   8.100       108
   8.200        96
   8.300       104
   8.400       100
   8.500       106
   8.600        96
   8.700        92
   8.800       100
   8.900       106
   9.000        84
   9.100       100
   9.200       106
   9.300        96
   9.400        82
   9.500        90
   9.600        86
   9.700        82
   9.800        84
   9.900        90
  10.000        98
  10.100        88
  10.200        92
  10.300        79
  10.400       104
  10.500        79
  10.600        67
  10.700        77
  10.800        82
  10.900        67
  11.000        88
  11.100        81
  11.200        92
  11.300        62
  11.400        88
  11.500        62
  11.600        82
  11.700        77
  11.800        65
  11.900        70
  12.000        86
  12.100        56
  12.200        72
  12.300        72
  12.400        65
  12.500        59
  12.600        82
  12.700        68
  12.800        88
  12.900        59
  13.000        62
  13.100        62
  13.200        65
  13.300        70
  13.400        86
  13.500        65
  13.600        62
  13.700        75
  13.800        72
  13.900        79
  14.000        77
  14.100        73
  14.200        68
  14.300        64
  14.400        67
  14.500        72
  14.600        79
  14.700        56
  14.800        68
  14.900        75
  15.000        75
  15.100        82
  15.200        94
  15.300        96
  15.400        77
  15.500        82
  15.600        75
  15.700        72
  15.800        49
  15.900        82
  16.000        65
  16.100        72
  16.200        75
  16.300        82
  16.400        84
  16.500        67
  16.600       112
  16.700       141
  16.800       163
  16.900        94
  17.000        82
  17.100       100
  17.200        98
  17.300        88
  17.400       102
  17.500       104
  17.600       141
  17.700       156
  17.800       240
  17.900       275
  18.000       466
  18.100       745
  18.200      1505
  18.300      3721
  18.400     11109
  18.500     36557
  18.600     72199
  18.700     14689
  18.800      2430
  18.900      1024
  19.000       515
  19.100       327
  19.200       225
  19.300       156
  19.400       136
  19.500       121
  19.600        94
  19.700       106
  19.800        82
  19.900        94
  20.000        77
  20.100        64
  20.200        70
  20.300        75
  20.400        67
  20.500        70
  20.600        51
  20.700        51
  20.800        65
  20.900        53
  21.000        46
  21.100        60
  21.200        67
  21.300        56
  21.400        46
  21.500        50
  21.600        53
  21.700        42
  21.800        53
  21.900        53
  22.000        38
  22.100        50
  22.200        51
  22.300        42
  22.400        44
  22.500        39
  22.600        43
  22.700        39
  22.800        37
  22.900        49
  23.000        49
  23.100        51
  23.200        43
  23.300        40
  23.400        38
  23.500        47
  23.600        44
  23.700        49
  23.800        47
  23.900        50
  24.000        38
  24.100        39
  24.200        40
  24.300        46
  24.400        44
  24.500        49
  24.600        40
  24.700        43
  24.800        44
  24.900        37
  25.000        42
  25.100        39
  25.200        42
  25.300        37
  25.400        43
  25.500        50
  25.600        44
  25.700        43
  25.800        56
  25.900        46
  26.000        47
  26.100        59
  26.200        67
  26.300        50
  26.400        43
  26.500        32
  26.600        53
  26.700        37
  26.800        47
  26.900        53
  27.000        40
  27.100        49
  27.200        50
  27.300        39
  27.400        47
  27.500        70
  27.600        38
  27.700        39
  27.800        72
  27.900        40
  28.000        38
  28.100        40
  28.200        50
  28.300        38
  28.400        33
  28.500        47
  28.600        31
  28.700        39
  28.800        34
  28.900        34
  29.000        39
  29.100        43
  29.200        31
  29.300        44
  29.400        47
  29.500        38
  29.600        37
  29.700        47
  29.800        46
  29.900        37
  30.000        40
  30.100        47
  30.200        43
  30.300        43
  30.400        54
  30.500        46
  30.600        50
  30.700        50
  30.800        49
  30.900        53
  31.000        39
  31.100        50
  31.200        54
  31.300        42
  31.400        40
  31.500        53
  31.600        47
  31.700        40
  31.800        44
  31.900        43
  32.000        43
  32.100        50
  32.200        37
  32.300        47
  32.400        47
  32.500        57
  32.600        79
  32.700       144
  32.800       331
  32.900       219
  33.000        67
  33.100        70
  33.200        59
  33.300        50
  33.400        43
  33.500        43
  33.600        56
  33.700        47
  33.800        53
  33.900        43
  34.000        53
  34.100        57
  34.200        72
  34.300        44
  34.400        67
  34.500        43
  34.600        42
  34.700        51
  34.800        53
  34.900        54
  35.000        59
  35.100        40
  35.200        50
  35.300        59
  35.400        46
  35.500        57
  35.600        67
  35.700        60
  35.800        50
  35.900        47
  36.000        64
  36.100        75
  36.200        72
  36.300        77
  36.400        77
  36.500        70
  36.600        67
  36.700        70
  36.800        88
  36.900        86
  37.000        88
  37.100       127
  37.200       123
  37.300       151
  37.400       176
  37.500       302
  37.600       533
  37.700      1218
  37.800      3249
  37.900      9177
  38.000     14065
  38.100      6724
  38.200      1296
  38.300       424
  38.400       243
  38.500       196
  38.600       134
  38.700       116
  38.800        75
  38.900        88
  39.000        90
  39.100        67
  39.200        67
  39.300        70
  39.400        59
  39.500        77
  39.600        65
  39.700        50
  39.800        65
  39.900        59
  40.000        53
  40.100        64
  40.200        56
  40.300        49
  40.400        47
  40.500        50
  40.600        47
  40.700        59
  40.800        60
  40.900        53
  41.000        64
  41.100        57
  41.200        67
  41.300        62
  41.400        59
  41.500        47
  41.600        62
  41.700        65
  41.800        51
  41.900        50
  42.000        56
  42.100        53
  42.200        51
  42.300        62
  42.400        62
  42.500        67
  42.600        47
  42.700        59
  42.800        86
  42.900        72
  43.000        57
  43.100        46
  43.200        60
  43.300        42
  43.400        44
  43.500        50
  43.600        54
  43.700        44
  43.800        43
  43.900        50
  44.000        51
  44.100        46
  44.200        56
  44.300        59
  44.400        56
  44.500        39
  44.600        56
  44.700        50
  44.800        50
  44.900        60
  45.000        65
  45.100        67
  45.200        56
  45.300        59
  45.400        53
  45.500        51
  45.600        59
  45.700        67
  45.800        56
  45.900        70
  46.000        62
  46.100        68
  46.200        59
  46.300        77
  46.400        64
  46.500        50
  46.600        51
  46.700        49
  46.800        49
  46.900        54
  47.000        51
  47.100        67
  47.200        47
  47.300        59
  47.400        47
  47.500        68
  47.600        62
  47.700        51
  47.800        43
  47.900        65
  48.000        53
  48.100        60
  48.200        57
  48.300        56
  48.400        79
  48.500        81
  48.600        46
  48.700        70
  48.800        72
  48.900        70
  49.000        79
  49.100        65
  49.200        79
  49.300        68
  49.400        72
  49.500        86
  49.600        77
  49.700        94
  49.800        92
  49.900       116
  50.000       132
  50.100       125
  50.200       187
  50.300       222
  50.400       392
  50.500       772
  50.600      1755
  50.700      4395
  50.800      8408
  50.900      6922
  51.000      3648
  51.100      1062
  51.200       408
  51.300       240
  51.400       153
  51.500       121
  51.600       123
  51.700        94
  51.800        86
  51.900        86
  52.000        98
  52.100        62
  52.200        67
  52.300        72
  52.400        67
  52.500        79
  52.600        73
  52.700        62
  52.800        70
  52.900        59
  53.000        67
  53.100        65
  53.200        57
  53.300        57
  53.400        50
  53.500        57
  53.600        65
  53.700        56
  53.800        53
  53.900        59
  54.000        64
  54.100        49
  54.200        56
  54.300        53
  54.400        38
  54.500        56
  54.600        56
  54.700        56
  54.800        49
  54.900        47
  55.000        54
  55.100        50
  55.200        57
  55.300        47
  55.400        67
  55.500        49
  55.600        50
  55.700        59
  55.800        65
  55.900        59
  56.000        65
  56.100        56
  56.200        53
  56.300        60
  56.400        79
  56.500        59
  56.600        57
  56.700        62
  56.800        44
  56.900        62
  57.000        44
  57.100        51
  57.200        68
  57.300        62
  57.400        72
  57.500        65
  57.600        81
  57.700        75
  57.800        84
  57.900       144
  58.000       190
  58.100       148
  58.200       166
  58.300       272
  58.400       580
  58.500      1346
  58.600      2570
  58.700      1489
  58.800       985
  58.900       246
  59.000       114
  59.100        90
  59.200        81
  59.300        62
  59.400        70
  59.500        65
  59.600        53
  59.700        54
  59.800        65
  59.900        65
  60.000        56
  60.100        56
  60.200        50
  60.300        57
  60.400        60
  60.500        53
  60.600        56
  60.700        50
  60.800        72
  60.900        54
  61.000        62
  61.100        70
  61.200        75
  61.300        54
  61.400        77
  61.500        75
  61.600       108
  61.700       144
  61.800       249
  61.900       580
  62.000      1190
  62.100      1135
  62.200       729
  62.300       353
  62.400       118
  62.500        82
  62.600        60
  62.700        64
  62.800        53
  62.900        50
  63.000        50
  63.100        50
  63.200        49
  63.300        67
  63.400        39
  63.500        50
  63.600        50
  63.700        54
  63.800        47
  63.900        53
  64.000        53
  64.100        59
  64.200        56
  64.300        37
  64.400        51
  64.500        59
  64.600        50
  64.700        57
  64.800        50
  64.900        50
  65.000        62
  65.100        50
  65.200        54
  65.300        47
  65.400        40
  65.500        47
  65.600        50
  65.700        47
  65.800        54
  65.900        64
  66.000        62
  66.100        50
  66.200        53
  66.300        56
  66.400        67
  66.500        68
  66.600        59
  66.700        59
  66.800        65
  66.900        64
  67.000        62
  67.100        64
  67.200        64
  67.300        82
  67.400        94
  67.500       102
  67.600       123
  67.700       163
  67.800       210
  67.900       449
  68.000       806
  68.100      1592
  68.200      2777
  68.300      2401
  68.400      1705
  68.500      1062
  68.600       424
  68.700       252
  68.800       198
  68.900       161
  69.000        96
  69.100       102
  69.200        70
  69.300        57
  69.400        59
  69.500        54
  69.600        62
  69.700        56
  69.800        64
  69.900        65
  70.000        56
  70.100        47
  70.200        47
  70.300        44
  70.400        60
  70.500        53
  70.600        59
  70.700        56
  70.800        38
  70.900        47
  71.000        64
  71.100        62
  71.200        51
  71.300        50
  71.400        65
  71.500        59
  71.600        92
  71.700       153
  71.800       285
  71.900       533
  72.000       841
  72.100       538
  72.200       470
  72.300       225
  72.400       112
  72.500        62
  72.600        60
  72.700        51
  72.800        54
  72.900        38
  73.000        57
  73.100        65
  73.200        39
  73.300        46
  73.400        47
  73.500        43
  73.600        43
  73.700        50
  73.800        38
  73.900        47
  74.000        38
  74.100        33
  74.200        38
  74.300        39
  74.400        37
  74.500        38
  74.600        56
  74.700        47
  74.800        38
  74.900        37
  75.000        47
  75.100        34
  75.200        47
  75.300        49
  75.400        40
  75.500        43
  75.600        47
  75.700        36
  75.800        44
  75.900        37
  76.000        56
  76.100        37
  76.200        31
  76.300        38
  76.400        31
  76.500        34
  76.600        33
  76.700        59
  76.800        39
  76.900        42
  77.000        34
  77.100        56
  77.200        46
  77.300        46
  77.400        50
  77.500        47
  77.600        42
  77.700        50
  77.800        24
  77.900        49
  78.000        50
  78.100        40
  78.200        53
  78.300        47
  78.400        37
  78.500        59
  78.600        59
  78.700        44
  78.800        49
  78.900        36
  79.000        43
  79.100        43
  79.200        43
  79.300        43
  79.400        50
  79.500        56
  79.600        49
  79.700        53
  79.800        50
  79.900        62
  80.000        72
  80.100       110
  80.200       146
  80.300       228
  80.400       388
  80.500       457
  80.600       342
  80.700       320
  80.800       278
  80.900       213
  81.000       295
  81.100       457
  81.200       750
  81.300       640
  81.400       484
  81.500       364
  81.600       228
  81.700       112
  81.800        79
  81.900        56
  82.000        53
  82.100        65
  82.200        42
  82.300        38
  82.400        43
  82.500        49
  82.600        65
  82.700        54
  82.800        36
  82.900        38
  83.000        51
  83.100        56
  83.200        31
  83.300        47
  83.400        44
  83.500        38
  83.600        28
  83.700        30
  83.800        26
  83.900        46
  84.000        32
  84.100        47
  84.200        43
  84.300        42
  84.400        39
  84.500        36
  84.600        38
  84.700        46
  84.800        38
  84.900        36
  85.000        42
  85.100        43
  85.200        39
  85.300        37
  85.400        39
  85.500        37
  85.600        32
  85.700        42
  85.800        37
  85.900        39
  86.000        43
  86.100        36
  86.200        47
  86.300        33
  86.400        56
  86.500        37
  86.600        43
  86.700        44
  86.800        43
  86.900        67
  87.000        98
  87.100       118
  87.200        90
  87.300        92
  87.400        70
  87.500        56
  87.600        53
  87.700        39
  87.800        50
  87.900        40
  88.000        42
  88.100        49
  88.200        49
  88.300        38
  88.400        54
  88.500        43
  88.600        47
  88.700        30
  88.800        53
  88.900        62
  89.000        54
  89.100        54
  89.200        88
  89.300        98
  89.400       163
  89.500       234
  89.600       364
  89.700       420
  89.800       327
  89.900       282
  90.000       213
  90.100       146
  90.200        72
  90.300        57
  90.400        51
  90.500        47
  90.600        53
  90.700        47
  90.800        43
  90.900        43
  91.000        49
  91.100        30
  91.200        38
  91.300        38
  91.400        36
  91.500        42
  91.600        40
  91.700        42
  91.800        53
  91.900        38
  92.000        43
  92.100        38
  92.200        44
  92.300        30
  92.400        32
  92.500        40
  92.600        38
  92.700        40
  92.800        38
  92.900        42
  93.000        43
  93.100        40
  93.200        30
  93.300        33
  93.400        38
  93.500        25
  93.600        49
  93.700        27
  93.800        34
  93.900        36
  94.000        39
  94.100        37
  94.200        40
  94.300        43
  94.400        43
  94.500        43
  94.600        37
  94.700        42
  94.800        38
  94.900        38
  95.000        34
  95.100        37
  95.200        43
  95.300        46
  95.400        51
  95.500        43
  95.600        54
  95.700        73
  95.800        98
  95.900       121
  96.000       207
  96.100       338
  96.200       470
  96.300       368
  96.400       320
  96.500       306
  96.600       237
  96.700       163
  96.800       136
  96.900       112
  97.000        79
  97.100        72
  97.200        68
  97.300        47
  97.400        40
  97.500        53
  97.600        43
  97.700        33
  97.800        46
  97.900        44
  98.000        56
  98.100        51
  98.200        53
  98.300        36
  98.400        43
  98.500        24
  98.600        34
  98.700        50
  98.800        47
  98.900        56
  99.000        56
  99.100        40
  99.200        56
  99.300        70
  99.400        88
  99.500       136
  99.600       196
  99.700       313
  99.800       479
  99.900       353
 100.000       237
 100.100       262
 100.200       228
 100.300       116
 100.400        79
 100.500        72
 100.600        40
 100.700        47
 100.800        49
 100.900        33
 101.000        53
 101.100        53
 101.200        46
 101.300        32
 101.400        50
 101.500        51
 101.600        47
 101.700        47
 101.800        47
 101.900        40
 102.000        50
 102.100        43
 102.200        43
 102.300        47
 102.400        38
 102.500        43
 102.600        42
 102.700        34
 102.800        38
 102.900        32
 103.000        46
 103.100        43
 103.200        51
 103.300        47
 103.400        38
 103.500        47
 103.600        47
 103.700        49
 103.800        50
 103.900        37
 104.000        40
 104.100        36
 104.200        38
 104.300        47
 104.400        53
 104.500        38
 104.600        38
 104.700        44
 104.800        43
 104.900        53
 105.000        47
 105.100        38
 105.200        36
 105.300        47
 105.400        47
 105.500        44
 105.600        56
 105.700        38
 105.800        32
 105.900        40
 106.000        40
 106.100        39
 106.200        43
 106.300        38
 106.400        50
 106.500        51
 106.600        54
 106.700        70
 106.800        50
 106.900        62
 107.000        70
 107.100        70
 107.200        84
 107.300       102
 107.400       121
 107.500       171
 107.600       234
 107.700       278
 107.800       272
 107.900       272
 108.000       313
 108.100       416
 108.200       515
 108.300       542
 108.400       470
 108.500       392
 108.600       384
 108.700       361
 108.800       361
 108.900       400
 109.000       542
 109.100       605
 109.200       449
 109.300       292
 109.400       295
 109.500       320
 109.600       210
 109.700       153
 109.800       106
 109.900        77
 110.000        72
 110.100        43
 110.200        47
 110.300        59
 110.400        50
 110.500        46
 110.600        49
 110.700        49
 110.800        49
 110.900        43
 111.000        46
 111.100        57
 111.200        34
 111.300        47
 111.400        49
 111.500        42
 111.600        44
 111.700        39
 111.800        47
 111.900        51
 112.000        47
 112.100        50
 112.200        43
 112.300        46
 112.400        43
 112.500        38
 112.600        47
 112.700        49
 112.800        50
 112.900        43
 113.000        47
 113.100        42
 113.200        38
 113.300        40
 113.400        36
 113.500        40
 113.600        51
 113.700        29
 113.800        34
 113.900        50
 114.000        53
 114.100        47
 114.200        34
 114.300        49
 114.400        44
 114.500        38
 114.600        46
 114.700        47
 114.800        49
 114.900        49
 115.000        47
 115.100        43
 115.200        50
 115.300        51
 115.400        67
 115.500        56
 115.600        90
 115.700       110
 115.800       136
 115.900       225
 116.000       246
 116.100       163
 116.200       121
 116.300       129
 116.400       136
 116.500       125
 116.600       104
 116.700        82
 116.800        68
 116.900        65
 117.000        56
 117.100        51
 117.200        62
 117.300        90
 117.400        96
 117.500       144
 117.600       163
 117.700       169
 117.800       125
 117.900       141
 118.000       156
 118.100       182
 118.200       171
 118.300       182
 118.400       161
 118.500       123
 118.600       127
 118.700       123
 118.800       112
 118.900       102
 119.000        94
 119.100        96
 119.200       163
 119.300       193
 119.400       196
 119.500       129
 119.600       110
 119.700       116
 119.800        94
 119.900       114
 120.000        72
 120.100        67
 120.200        56
 120.300        50
 120.400        43
 120.500        56
 120.600        56
 120.700        40
 120.800        44
 120.900        47
 121.000        42
 121.100        46
 121.200        53
 121.300        49
 121.400        43
 121.500        44
 121.600        57
 121.700        39
 121.800        43
 121.900        39
 122.000        49
 122.100        53
 122.200        47
 122.300        43
 122.400        44
 122.500        38
 122.600        31
 122.700        37
 122.800        54
 122.900        43
 123.000        47
 123.100        43
 123.200        39
 123.300        60
 123.400        43
 123.500        49
 123.600        30
 123.700        34
 123.800        53
 123.900        39
 124.000        56
 124.100        50
 124.200        47
 124.300        62
 124.400        50
 124.500        57
 124.600        43
 124.700        53
 124.800        50
 124.900        47
 125.000        56
 125.100        67
 125.200        72
 125.300        70
 125.400        77
 125.500       102
 125.600       123
 125.700       176
 125.800       256
 125.900       368
 126.000       416
 126.100       416
 126.200       320
 126.300       252
 126.400       213
 126.500       249
 126.600       275
 126.700       222
 126.800       156
 126.900        88
 127.000        92
 127.100        70
 127.200        62
 127.300        64
 127.400        64
 127.500        53
 127.600        60
 127.700        54
 127.800        39
 127.900        56
 128.000        43
 128.100        51
 128.200        40
 128.300        47
 128.400        54
 128.500        39
 128.600        47
 128.700        46
 128.800        40
 128.900        57
 129.000        33
 129.100        27
 129.200        51
 129.300        43
 129.400        47
 129.500        50
 129.600        46
 129.700        51
 129.800        38
 129.900        44
 130.000        46
 130.100        49
 130.200        39
 130.300        56
 130.400        49
 130.500        42
 130.600        38
 130.700        43
 130.800        43
 130.900        50
 131.000        40
 131.100        34
 131.200        53
 131.300        50
 131.400        51
 131.500        47
 131.600        49
 131.700        38
 131.800        51
 131.900        50
 132.000        32
 132.100        44
 132.200        44
 132.300        70
 132.400        42
 132.500        51
 132.600        29
 132.700        47
 132.800        43
 132.900        44
 133.000        43
 133.100        53
 133.200        46
 133.300        38
 133.400        37
 133.500        39
 133.600        39
 133.700        40
 133.800        50
 133.900        57
 134.000        50
 134.100        36
 134.200        47
 134.300        53
 134.400        64
 134.500        50
 134.600        39
 134.700        51
 134.800        56
 134.900        34
 135.000        44
 135.100        47
 135.200        50
 135.300        44
 135.400        47
 135.500        50
 135.600        27
 135.700        39
 135.800        47
 135.900        47
 136.000        59
 136.100        47
 136.200        39
 136.300        53
 136.400        50
 136.500        50
 136.600        33
 136.700        42
 136.800        43
 136.900        53
 137.000        53
 137.100        47
 137.200        47
 137.300        54
 137.400        37
 137.500        43
 137.600        53
 137.700        42
 137.800        42
 137.900        40
 138.000        49
 138.100        53
 138.200        42
 138.300        43
 138.400        47
 138.500        43
 138.600        50
 138.700        47
 138.800        53
 138.900        56
 139.000        53
 139.100        53
 139.200        47
 139.300        49
 139.400        44
 139.500        49
 139.600        62
 139.700        49
 139.800        72
 139.900        56
 140.000        62
 140.100        62
 140.200        67
 140.300        70
 140.400        73
 140.500        72
 140.600        98
 140.700        96
 140.800       108
 140.900       127
 141.000       129
 141.100       174
 141.200       231
 141.300       262
 141.400       334
 141.500       420
 141.600       453
 141.700       428
 141.800       376
 141.900       320
 142.000       292
 142.100       262
 142.200       265
 142.300       240
 142.400       272
 142.500       237
 142.600       222
 142.700       207
 142.800       153
 142.900       121
 143.000       106
 143.100        92
 143.200        98
 143.300        79
 143.400        65
 143.500        70
 143.600        64
 143.700        62
 143.800        72
 143.900        65
 144.000        64
 144.100        67
 144.200        53
 144.300        73
 144.400        53
 144.500        46
 144.600        53
 144.700        47
 144.800        62
 144.900        50
 145.000        56
 145.100        53
 145.200        46
 145.300        42
 145.400        53
 145.500        49
 145.600        53
 145.700        44
 145.800        44
 145.900        46
 146.000        47
 146.100        42
 146.200        47
 146.300        47
 146.400        51
 146.500        50
 146.600        53
 146.700        47
 146.800        44
 146.900        43
 147.000        49
 147.100        53
 147.200        50
 147.300        44
 147.400        47
 147.500        44
 147.600        47
 147.700        46
 147.800        51
 147.900        49
 148.000        51
 148.100        62
 148.200        53
 148.300        50
 148.400        50
 148.500        54
 148.600        44
 148.700        49
 148.800        39
 148.900        53
 149.000        38
 149.100        50
 149.200        50
 149.300        47
 149.400        36
 149.500        56
 149.600        46
 149.700        50
 149.800        51
 149.900        44
 150.000        44