File: data/XRD/CPD-1F.PRN
   5.000       187
   5.100       171
   5.200       184
   5.300       176
   5.400       179
   5.500       163
   5.600       136
   5.700       158
   5.800       163
   5.900       151
   6.000       121
   6.100       144
   6.200       118
   6.300       141
   6.400       127
   6.500       134
   6.600       148
   6.700       121
   6.800       112
   6.900       112
   7.000       116
   7.100       108
   7.200       127
   7.300       118
   7.400       121
   7.500       110
   7.600        92
   7.700       106
   7.800        92
   7.900       100
   8.000        88
   8.100        86
   8.200        90
   8.300       106
   8.400        96
   8.500        98
   8.600        98
   8.700        77
   8.800        81
   8.900        82
   9.000        77
   9.100        86
   9.200        79
   9.300        72
   9.400        88
   9.500        96
   9.600        77
   9.700        90
   9.800        90
   9.900        81
  10.000        86
  10.100        75
  10.200        90
  10.300        79
  10.400        62
  10.500        67
  10.600        67
  10.700        62
  10.800        72
  10.900        59
  11.000        64
  11.100        70
  11.200        75
  11.300        65
  11.400        65
  11.500        77
  11.600        75
  11.700        57
  11.800        70
  11.900        53
  12.000        59
  12.100        54
  12.200        75
  12.300        65
  12.400        59
  12.500        53
  12.600        65
  12.700        67
  12.800        60
  12.900        79
  13.000        64
  13.100        59
  13.200        59
  13.300        60
  13.400        62
  13.500        62
  13.600        60
  13.700        59
  13.800        44
  13.900        50
  14.000        53
  14.100        60
  14.200        50
  14.300        47
  14.400        44
  14.500        65
  14.600        56
  14.700        44
  14.800        59
  14.900        44
  15.000        44
  15.100        54
  15.200        59
  15.300        53
  15.400        53
  15.500        50
  15.600        46
  15.700        49
  15.800        56
  15.900        47
  16.000        44
  16.100        50
  16.200        53
  16.300        42
  16.400        59
  16.500        34
  16.600        49
  16.700        42
  16.800        56
  16.900        34
  17.000        43
  17.100        34
  17.200        59
  17.300        46
  17.400        51
  17.500        43
  17.600        50
  17.700        43
  17.800        34
  17.900        50
  18.000        50
  18.100        39
  18.200        42
  18.300        42
  18.400        34
  18.500        47
  18.600        47
  18.700        59
  18.800        32
  18.900        38
  19.000        38
  19.100        37
  19.200        38
  19.300        47
  19.400        43
  19.500        42
  19.600        38
  19.700        25
  19.800        43
  19.900        38
  20.000        46
  20.100        29
  20.200        39
  20.300        36
  20.400        38
  20.500        39
  20.600        36
  20.700        43
  20.800        46
  20.900        38
  21.000        47
  21.100        47
  21.200        32
  21.300        34
  21.400        36
  21.500        43
  21.600        24
  21.700        31
  21.800        37
  21.900        34
  22.000        39
  22.100        36
  22.200        32
  22.300        42
  22.400        33
  22.500        34
  22.600        33
  22.700        46
  22.800        38
  22.900        39
  23.000        38
  23.100        53
  23.200        26
  23.300        38
  23.400        53
  23.500        38
  23.600        38
  23.700        32
  23.800        38
  23.900        43
  24.000        36
  24.100        36
  24.200        38
  24.300        39
  24.400        39
  24.500        33
  24.600        44
  24.700        38
  24.800        44
  24.900        34
  25.000        38
  25.100        43
  25.200        43
  25.300        64
  25.400       123
  25.500       324
  25.600       882
  25.700       259
  25.800        64
  25.900        59
  26.000        38
  26.100        49
  26.200        34
  26.300        40
  26.400        39
  26.500        32
  26.600        47
  26.700        38
  26.800        38
  26.900        47
  27.000        34
  27.100        56
  27.200        43
  27.300        50
  27.400        51
  27.500        37
  27.600        51
  27.700        54
  27.800        59
  27.900        79
  28.000       123
  28.100       309
  28.200      1369
  28.300      3260
  28.400       954
  28.500       144
  28.600        70
  28.700        56
  28.800        53
  28.900        40
  29.000        42
  29.100        50
  29.200        44
  29.300        38
  29.400        33
  29.500        39
  29.600        38
  29.700        38
  29.800        44
  29.900        56
  30.000        39
  30.100        32
  30.200        42
  30.300        42
  30.400        43
  30.500        53
  30.600        59
  30.700        51
  30.800        57
  30.900        67
  31.000        77
  31.100        72
  31.200        84
  31.300       121
  31.400       184
  31.500       282
  31.600       729
  31.700      3226
  31.800      7867
  31.900      2970
  32.000       436
  32.100       210
  32.200       102
  32.300       102
  32.400        88
  32.500        70
  32.600        67
  32.700        82
  32.800        64
  32.900        77
  33.000        46
  33.100        47
  33.200        59
  33.300        50
  33.400        59
  33.500        70
  33.600        56
  33.700        62
  33.800        72
  33.900        84
  34.000       102
  34.100       151
  34.200       237
  34.300       900
  34.400      4515
  34.500      4186
  34.600       829
  34.700       228
  34.800       136
  34.900       125
  35.000       231
  35.100       795
  35.200      1190
  35.300       501
  35.400       148
  35.500       123
  35.600       116
  35.700       156
  35.800       163
  35.900       249
  36.000       510
  36.100      1354
  36.200      6642
  36.300     12188
  36.400      4719
  36.500       750
  36.600       334
  36.700       171
  36.800       136
  36.900       112
  37.000       106
  37.100        98
  37.200        56
  37.300        70
  37.400        59
  37.500        56
  37.600       104
  37.700       225
  37.800       519
  37.900       299
  38.000        77
  38.100        50
  38.200        50
  38.300        56
  38.400        39
  38.500        54
  38.600        51
  38.700        43
  38.800        38
  38.900        43
  39.000        38
  39.100        40
  39.200        46
  39.300        47
  39.400        39
  39.500        40
  39.600        42
  39.700        40
  39.800        43
  39.900        32
  40.000        38
  40.100        43
  40.200        37
  40.300        47
  40.400        47
  40.500        39
  40.600        31
  40.700        38
  40.800        37
  40.900        37
  41.000        31
  41.100        38
  41.200        42
  41.300        37
  41.400        37
  41.500        32
  41.600        56
  41.700        46
  41.800        43
  41.900        38
  42.000        40
  42.100        32
  42.200        62
  42.300        50
  42.400        47
  42.500        43
  42.600        38
  42.700        49
  42.800        51
  42.900        62
  43.000        62
  43.100        70
  43.200       146
  43.300       712
  43.400      1190
  43.500       615
  43.600       129
  43.700        73
  43.800        38
  43.900        40
  44.000        34
  44.100        39
  44.200        47
  44.300        37
  44.400        43
  44.500        43
  44.600        43
  44.700        38
  44.800        47
  44.900        42
  45.000        42
  45.100        49
  45.200        46
  45.300        43
  45.400        36
  45.500        47
  45.600        46
  45.700        44
  45.800        47
  45.900        34
  46.000        50
  46.100        43
  46.200        70
  46.300        72
  46.400        39
  46.500        70
  46.600        84
  46.700       123
  46.800       228
  46.900       702
  47.000      3102
  47.100      1857
  47.200       846
  47.300       289
  47.400       388
  47.500      1689
  47.600      2342
  47.700      1332
  47.800       249
  47.900       125
  48.000        73
  48.100        62
  48.200        47
  48.300        51
  48.400        60
  48.500        50
  48.600        42
  48.700        38
  48.800        44
  48.900        51
  49.000        54
  49.100        39
  49.200        50
  49.300        50
  49.400        42
  49.500        32
  49.600        43
  49.700        34
  49.800        25
  49.900        40
  50.000        46
  50.100        32
  50.200        29
  50.300        32
  50.400        38
  50.500        30
  50.600        36
  50.700        38
  50.800        39
  50.900        38
  51.000        34
  51.100        42
  51.200        44
  51.300        40
  51.400        42
  51.500        31
  51.600        40
  51.700        32
  51.800        37
  51.900        32
  52.000        32
  52.100        39
  52.200        40
  52.300        53
  52.400        94
  52.500       349
  52.600       552
  52.700       380
  52.800       114
  52.900        50
  53.000        39
  53.100        46
  53.200        38
  53.300        43
  53.400        42
  53.500        38
  53.600        50
  53.700        31
  53.800        50
  53.900        44
  54.000        39
  54.100        39
  54.200        38
  54.300        38
  54.400        38
  54.500        51
  54.600        50
  54.700        40
  54.800        47
  54.900        39
  55.000        49
  55.100        51
  55.200        54
  55.300        51
  55.400        68
  55.500        88
  55.600       125
  55.700       533
  55.800       864
  55.900       538
  56.000       252
  56.100       121
  56.200       118
  56.300       179
  56.400       275
  56.500       918
  56.600      4251
  56.700      2097
  56.800      1656
  56.900       331
  57.000       163
  57.100       116
  57.200       129
  57.300       144
  57.400       327
  57.500      1115
  57.600       676
  57.700       542
  57.800       134
  57.900        77
  58.000        65
  58.100        75
  58.200        50
  58.300        39
  58.400        62
  58.500        49
  58.600        51
  58.700        59
  58.800        37
  58.900        47
  59.000        42
  59.100        50
  59.200        44
  59.300        50
  59.400        43
  59.500        54
  59.600        59
  59.700        64
  59.800        62
  59.900        47
  60.000        51
  60.100        59
  60.200        43
  60.300        32
  60.400        53
  60.500        49
  60.600        62
  60.700        50
  60.800        42
  60.900        39
  61.000        59
  61.100        64
  61.200        90
  61.300       148
  61.400       110
  61.500        96
  61.600        56
  61.700        49
  61.800        65
  61.900        60
  62.000        53
  62.100        56
  62.200        70
  62.300        59
  62.400        86
  62.500       153
  62.600       196
  62.700       316
  62.800      1600
  62.900      3340
  63.000      1584
  63.100      1108
  63.200       225
  63.300       132
  63.400        94
  63.500        67
  63.600        60
  63.700        68
  63.800        60
  63.900        65
  64.000        53
  64.100        51
  64.200        46
  64.300        53
  64.400        62
  64.500        51
  64.600        42
  64.700        53
  64.800        49
  64.900        34
  65.000        49
  65.100        43
  65.200        32
  65.300        46
  65.400        47
  65.500        42
  65.600        56
  65.700        38
  65.800        50
  65.900        65
  66.000        65
  66.100        57
  66.200        94
  66.300       237
  66.400       665
  66.500       605
  66.600       556
  66.700       324
  66.800       151
  66.900        77
  67.000        86
  67.100        67
  67.200        64
  67.300        79
  67.400        64
  67.500        88
  67.600       121
  67.700       169
  67.800       364
  67.900      1528
  68.000      2683
  68.100      1260
  68.200      1747
  68.300       571
  68.400       470
  68.500       237
  68.600       252
  68.700       420
  68.800       234
  68.900       282
  69.000       441
  69.100      1528
  69.200       571
  69.300       772
  69.400       237
  69.500       100
  69.600        62
  69.700        67
  69.800        43
  69.900        54
  70.000        46
  70.100        51
  70.200        56
  70.300        56
  70.400        51
  70.500        56
  70.600        53
  70.700        43
  70.800        37
  70.900        43
  71.000        44
  71.100        47
  71.200        30
  71.300        47
  71.400        42
  71.500        38
  71.600        43
  71.700        42
  71.800        38
  71.900        44
  72.000        46
  72.100        38
  72.200        37
  72.300        50
  72.400        51
  72.500       106
  72.600       282
  72.700       102
  72.800       153
  72.900        65
  73.000        43
  73.100        43
  73.200        43
  73.300        27
  73.400        32
  73.500        47
  73.600        38
  73.700        43
  73.800        42
  73.900        26
  74.000        42
  74.100        38
  74.200        43
  74.300        53
  74.400        38
  74.500        50
  74.600        39
  74.700        33
  74.800        31
  74.900        33
  75.000        28
  75.100        29
  75.200        39
  75.300        36
  75.400        40
  75.500        36
  75.600        44
  75.700        75
  75.800       222
  75.900       204
  76.000       139
  76.100       158
  76.200        62
  76.300        62
  76.400        38
  76.500        51
  76.600        42
  76.700        72
  76.800       153
  76.900       400
  77.000       524
  77.100       278
  77.200       342
  77.300       207
  77.400        96
  77.500        84
  77.600        50
  77.700        46
  77.800        42
  77.900        33
  78.000        40
  78.100        53
  78.200        53
  78.300        50
  78.400        37
  78.500        43
  78.600        30
  78.700        26
  78.800        24
  78.900        29
  79.000        27
  79.100        38
  79.200        36
  79.300        43
  79.400        37
  79.500        30
  79.600        37
  79.700        25
  79.800        32
  79.900        31
  80.000        38
  80.100        40
  80.200        38
  80.300        36
  80.400        36
  80.500        42
  80.600        49
  80.700        90
  80.800        57
  80.900        59
  81.000        46
  81.100        43
  81.200        53
  81.300        82
  81.400       262
  81.500       118
  81.600       118
  81.700       102
  81.800        43
  81.900        32
  82.000        38
  82.100        32
  82.200        31
  82.300        34
  82.400        38
  82.500        34
  82.600        37
  82.700        27
  82.800        32
  82.900        32
  83.000        34
  83.100        20
  83.200        38
  83.300        38
  83.400        32
  83.500        36
  83.600        34
  83.700        32
  83.800        31
  83.900        30
  84.000        31
  84.100        33
  84.200        34
  84.300        56
  84.400        68
  84.500        47
  84.600        62
  84.700        43
  84.800        59
  84.900        39
  85.000        36
  85.100        38
  85.200        43
  85.300        29
  85.400        37
  85.500        38
  85.600        37
  85.700        32
  85.800        34
  85.900        36
  86.000        29
  86.100        26
  86.200        42
  86.300        57
  86.400        81
  86.500        72
  86.600        59
  86.700        47
  86.800        51
  86.900        50
  87.000        38
  87.100        43
  87.200        92
  87.300       219
  87.400       497
  87.500       219
  87.600       243
  87.700       198
  87.800        65
  87.900        57
  88.000        59
  88.100        39
  88.200        38
  88.300        43
  88.400        43
  88.500        29
  88.600        37
  88.700        38
  88.800        34
  88.900        65
  89.000       118
  89.100        92
  89.200        77
  89.300        94
  89.400       104
  89.500       216
  89.600       729
  89.700       660
  89.800       243
  89.900       475
  90.000       256
  90.100        84
  90.200        65
  90.300        53
  90.400        47
  90.500        39
  90.600        43
  90.700        40
  90.800        40
  90.900        51
  91.000        59
  91.100        75
  91.200       132
  91.300        60
  91.400        70
  91.500        79
  91.600        37
  91.700        42
  91.800        38
  91.900        32
  92.000        43
  92.100        38
  92.200        32
  92.300        51
  92.400        46
  92.500        50
  92.600        51
  92.700       127
  92.800       349
  92.900       163
  93.000        98
  93.100       204
  93.200        94
  93.300        54
  93.400        50
  93.500        33
  93.600        44
  93.700        32
  93.800        47
  93.900        56
  94.000        60
  94.100        88
  94.200       204
  94.300       106
  94.400        77
  94.500       136
  94.600        84
  94.700        65
  94.800        53
  94.900        68
  95.000        96
  95.100       148
  95.200       380
  95.300      1017
  95.400       645
  95.500       265
  95.600       492
  95.700       372
  95.800       129
  95.900        72
  96.000        57
  96.100        57
  96.200        46
  96.300        46
  96.400        43
  96.500        40
  96.600        43
  96.700        40
  96.800        33
  96.900        34
  97.000        36
  97.100        43
  97.200        40
  97.300        42
  97.400        46
  97.500        39
  97.600        34
  97.700        40
  97.800        38
  97.900        26
  98.000        38
  98.100        43
  98.200        37
  98.300        64
  98.400        90
  98.500       121
  98.600       436
  98.700       384
  98.800       129
  98.900       201
  99.000       234
  99.100        84
  99.200        47
  99.300        46
  99.400        43
  99.500        43
  99.600        47
  99.700        47
  99.800        46
  99.900        36
 100.000        27
 100.100        42
 100.200        44
 100.300        54
 100.400        30
 100.500        38
 100.600        38
 100.700        56
 100.800        44
 100.900        46
 101.000        90
 101.100       153
 101.200       118
 101.300        75
 101.400       106
 101.500        75
 101.600        50
 101.700        46
 101.800        36
 101.900        36
 102.000        39
 102.100        32
 102.200        43
 102.300        38
 102.400        39
 102.500        59
 102.600        50
 102.700        65
 102.800       106
 102.900       292
 103.000       364
 103.100       141
 103.200       125
 103.300       222
 103.400       151
 103.500        64
 103.600        75
 103.700        64
 103.800        73
 103.900        96
 104.000       139
 104.100       400
 104.200       630
 104.300       193
 104.400       179
 104.500       320
 104.600       225
 104.700        73
 104.800        54
 104.900        53
 105.000        47
 105.100        49
 105.200        47
 105.300        46
 105.400        50
 105.500        59
 105.600        64
 105.700        96
 105.800       169
 105.900       100
 106.000        70
 106.100        81
 106.200        90
 106.300        75
 106.400        47
 106.500        54
 106.600        43
 106.700        29
 106.800        42
 106.900        46
 107.000        38
 107.100        42
 107.200        49
 107.300        44
 107.400       116
 107.500       127
 107.600        62
 107.700        62
 107.800        86
 107.900        77
 108.000        57
 108.100        51
 108.200        54
 108.300        38
 108.400        36
 108.500        39
 108.600        49
 108.700        40
 108.800        33
 108.900        37
 109.000        42
 109.100        44
 109.200        44
 109.300        43
 109.400        31
 109.500        40
 109.600        39
 109.700        53
 109.800        42
 109.900        44
 110.000        56
 110.100        70
 110.200       106
 110.300       161
 110.400       457
 110.500       262
 110.600        96
 110.700       102
 110.800       252
 110.900       184
 111.000       102
 111.100        79
 111.200        59
 111.300        65
 111.400        62
 111.500        50
 111.600        44
 111.700        47
 111.800        32
 111.900        36
 112.000        50
 112.100        40
 112.200        36
 112.300        49
 112.400        36
 112.500        42
 112.600        44
 112.700        67
 112.800        57
 112.900        82
 113.000       179
 113.100       196
 113.200        98
 113.300        79
 113.400       102
 113.500       134
 113.600        82
 113.700        64
 113.800        62
 113.900        62
 114.000        53
 114.100        67
 114.200        40
 114.300        47
 114.400        59
 114.500        57
 114.600        62
 114.700        33
 114.800        46
 114.900        34
 115.000        50
 115.100        47
 115.200        56
 115.300        49
 115.400        38
 115.500        65
 115.600        77
 115.700        79
 115.800        92
 115.900       118
 116.000       144
 116.100       289
 116.200       479
 116.300      1062
 116.400       595
 116.500       289
 116.600       265
 116.700       400
 116.800       470
 116.900       222
 117.000       110
 117.100       114
 117.200        67
 117.300        60
 117.400        65
 117.500        50
 117.600        53
 117.700        65
 117.800        90
 117.900       102
 118.000        56
 118.100        53
 118.200        47
 118.300        62
 118.400        70
 118.500        51
 118.600        44
 118.700        43
 118.800        49
 118.900        43
 119.000        43
 119.100        40
 119.200        43
 119.300        50
 119.400        42
 119.500        46
 119.600        43
 119.700        38
 119.800        46
 119.900        31
 120.000        38
 120.100        38
 120.200        40
 120.300        47
 120.400        43
 120.500        51
 120.600        43
 120.700        44
 120.800        43
 120.900        51
 121.000        53
 121.100        43
 121.200        42
 121.300        62
 121.400       110
 121.500       275
 121.600       600
 121.700       299
 121.800       141
 121.900       104
 122.000       184
 122.100       299
 122.200       210
 122.300       108
 122.400        67
 122.500        72
 122.600        59
 122.700        49
 122.800        47
 122.900        50
 123.000        50
 123.100        39
 123.200        43
 123.300        40
 123.400        37
 123.500        39
 123.600        43
 123.700        30
 123.800        34
 123.900        46
 124.000        38
 124.100        59
 124.200        38
 124.300        39
 124.400        39
 124.500        51
 124.600        73
 124.700        46
 124.800        50
 124.900        53
 125.000        57
 125.100        92
 125.200       132
 125.300        88
 125.400        53
 125.500        50
 125.600        72
 125.700        68
 125.800        67
 125.900        82
 126.000       112
 126.100       187
 126.200       256
 126.300       176
 126.400       112
 126.500        67
 126.600        81
 126.700       139
 126.800       114
 126.900        90
 127.000        65
 127.100        47
 127.200        46
 127.300        54
 127.400        53
 127.500        60
 127.600       114
 127.700       161
 127.800       125
 127.900        73
 128.000        57
 128.100        60
 128.200        68
 128.300        92
 128.400        77
 128.500        62
 128.600        43
 128.700        47
 128.800        39
 128.900        47
 129.000        47
 129.100        32
 129.200        31
 129.300        33
 129.400        38
 129.500        47
 129.600        44
 129.700        62
 129.800        70
 129.900        84
 130.000        70
 130.100        64
 130.200        53
 130.300        57
 130.400        54
 130.500        60
 130.600        62
 130.700        47
 130.800        70
 130.900        50
 131.000        56
 131.100        67
 131.200        75
 131.300        56
 131.400        54
 131.500        50
 131.600        47
 131.700        56
 131.800        64
 131.900        47
 132.000        43
 132.100        42
 132.200        43
 132.300        33
 132.400        42
 132.500        50
 132.600        50
 132.700        38
 132.800        53
 132.900        47
 133.000        40
 133.100        36
 133.200        43
 133.300        50
 133.400        53
 133.500        56
 133.600        70
 133.700       100
 133.800       161
 133.900       376
 134.000       449
 134.100       219
 134.200       129
 134.300       100
 134.400        96
 134.500       112
 134.600       246
 134.700       228
 134.800       123
 134.900        94
 135.000        92
 135.100        88
 135.200       123
 135.300       108
 135.400        72
 135.500        56
 135.600        81
 135.700        73
 135.800        98
 135.900       139
 136.000       176
 136.100       243
 136.200       198
 136.300       127
 136.400        84
 136.500       141
 136.600       161
 136.700       148
 136.800       161
 136.900       144
 137.000        86
 137.100        82
 137.200        84
 137.300        94
 137.400       108
 137.500        57
 137.600        57
 137.700        56
 137.800        42
 137.900        36
 138.000        46
 138.100        57
 138.200        47
 138.300        81
 138.400       108
 138.500       163
 138.600       210
 138.700       121
 138.800        79
 138.900        79
 139.000        53
 139.100        65
 139.200        86
 139.300       114
 139.400       112
 139.500        75
 139.600        56
 139.700        62
 139.800        64
 139.900        50
 140.000        31
 140.100        49
 140.200        47
 140.300        44
 140.400        37
 140.500        51
 140.600        47
 140.700        50
 140.800        56
 140.900        54
 141.000        43
 141.100        62
 141.200        59
 141.300        51
 141.400        50
 141.500        49
 141.600        56
 141.700        59
 141.800        50
 141.900        60
 142.000        49
 142.100        57
 142.200        70
 142.300        86
 142.400        90
 142.500        77
 142.600        88
 142.700        84
 142.800       156
 142.900       259
 143.000       368
 143.100       231
 143.200       132
 143.300       118
 143.400        90
 143.500        70
 143.600        98
 143.700       151
 143.800       184
 143.900       179
 144.000       108
 144.100        84
 144.200        75
 144.300        57
 144.400        51
 144.500        56
 144.600        59
 144.700        50
 144.800        56
 144.900        53
 145.000        79
 145.100       104
 145.200       118
 145.300       102
 145.400        77
 145.500        62
 145.600        53
 145.700        57
 145.800        49
 145.900        59
 146.000        59
 146.100        70
 146.200        75
 146.300        62
 146.400        62
 146.500        36
 146.600        43
 146.700        33
 146.800        50
 146.900        56
 147.000        37
 147.100        37
 147.200        38
 147.300        43
 147.400        56
 147.500        39
 147.600        37
 147.700        50
 147.800        40
 147.900        43
 148.000        40
 148.100        44
 148.200        46
 148.300        50
 148.400        53
 148.500        47
 148.600        50
 148.700        56
 148.800        53
 148.900        57
 149.000        62
 149.100        67
 149.200        84
 149.300        94
 149.400        70
 149.500        67
 149.600        72
 149.700        64
 149.800        82
 149.900        86
 150.000        92