File: data/XRD/CPD-3.PRN
   5.000       289
   5.100       292
   5.200       272
   5.300       268
   5.400       243
   5.500       302
   5.600       240
   5.700       240
   5.800       240
   5.900       225
   6.000       198
   6.100       219
   6.200       213
   6.300       210
   6.400       193
   6.500       193
   6.600       184
   6.700       196
   6.800       210
   6.900       201
   7.000       193
   7.100       182
   7.200       141
   7.300       153
   7.400       182
   7.500       176
   7.600       148
   7.700       148
   7.800       158
   7.900       163
   8.000       134
   8.100       146
   8.200       156
   8.300       141
   8.400       148
   8.500       136
   8.600       141
   8.700       148
   8.800       139
   8.900       129
   9.000       136
   9.100       125
   9.200       134
   9.300       108
   9.400       108
   9.500       110
   9.600       132
   9.700       127
   9.800       132
   9.900       118
  10.000       112
  10.100       102
  10.200       118
  10.300       112
  10.400       110
  10.500       100
  10.600       102
  10.700       127
  10.800       102
  10.900        92
  11.000       118
  11.100       102
  11.200       108
  11.300       118
  11.400       118
  11.500       116
  11.600        96
  11.700       118
  11.800       106
  11.900       116
  12.000       100
  12.100        96
  12.200       102
  12.300       108
  12.400        92
  12.500       110
  12.600       106
  12.700        96
  12.800       108
  12.900       118
  13.000       121
  13.100       110
  13.200        86
  13.300        92
  13.400        98
  13.500        92
  13.600       100
  13.700        98
  13.800       104
  13.900       100
  14.000       100
  14.100        77
  14.200       100
  14.300        98
  14.400        94
  14.500        98
  14.600        90
  14.700       100
  14.800        92
  14.900        98
  15.000        98
  15.100        84
  15.200       108
  15.300        88
  15.400        94
  15.500       132
  15.600       106
  15.700       102
  15.800        96
  15.900        92
  16.000       112
  16.100       114
  16.200       106
  16.300       106
  16.400       110
  16.500       106
  16.600        98
  16.700        96
  16.800       129
  16.900       100
  17.000        98
  17.100       129
  17.200       108
  17.300       118
  17.400       132
  17.500       108
  17.600       129
  17.700       132
  17.800       121
  17.900       129
  18.000       125
  18.100       166
  18.200       134
  18.300       136
  18.400       153
  18.500       134
  18.600       146
  18.700       151
  18.800       161
  18.900       127
  19.000       182
  19.100       166
  19.200       174
  19.300       176
  19.400       158
  19.500       146
  19.600       193
  19.700       161
  19.800       207
  19.900       176
  20.000       190
  20.100       176
  20.200       184
  20.300       225
  20.400       213
  20.500       222
  20.600       201
  20.700       219
  20.800       207
  20.900       219
  21.000       228
  21.100       237
  21.200       207
  21.300       222
  21.400       213
  21.500       176
  21.600       213
  21.700       237
  21.800       243
  21.900       240
  22.000       246
  22.100       231
  22.200       228
  22.300       252
  22.400       216
  22.500       240
  22.600       252
  22.700       237
  22.800       210
  22.900       249
  23.000       231
  23.100       249
  23.200       213
  23.300       240
  23.400       222
  23.500       207
  23.600       228
  23.700       198
  23.800       222
  23.900       201
  24.000       201
  24.100       216
  24.200       216
  24.300       193
  24.400       198
  24.500       171
  24.600       179
  24.700       196
  24.800       196
  24.900       204
  25.000       166
  25.100       196
  25.200       190
  25.300       210
  25.400       285
  25.500       620
  25.600      1024
  25.700       376
  25.800       187
  25.900       171
  26.000       166
  26.100       171
  26.200       153
  26.300       171
  26.400       153
  26.500       136
  26.600       123
  26.700       148
  26.800       121
  26.900       144
  27.000       127
  27.100       123
  27.200       153
  27.300       136
  27.400       146
  27.500       139
  27.600       139
  27.700       118
  27.800       141
  27.900       174
  28.000       262
  28.100       576
  28.200      2079
  28.300      3445
  28.400       784
  28.500       219
  28.600       127
  28.700       102
  28.800       139
  28.900       125
  29.000        96
  29.100       110
  29.200       104
  29.300       108
  29.400       118
  29.500        94
  29.600       100
  29.700       102
  29.800       102
  29.900       102
  30.000        90
  30.100        96
  30.200       108
  30.300        88
  30.400       102
  30.500        82
  30.600        98
  30.700        94
  30.800       104
  30.900       104
  31.000       104
  31.100       100
  31.200       106
  31.300       132
  31.400       148
  31.500       228
  31.600       457
  31.700      1697
  31.800      2704
  31.900       876
  32.000       193
  32.100       139
  32.200       123
  32.300        88
  32.400       104
  32.500       104
  32.600        94
  32.700       104
  32.800        86
  32.900       102
  33.000        84
  33.100        79
  33.200        79
  33.300        94
  33.400        59
  33.500        88
  33.600        90
  33.700        88
  33.800        84
  33.900       108
  34.000       112
  34.100       108
  34.200       187
  34.300       580
  34.400      2016
  34.500      1296
  34.600       316
  34.700       132
  34.800       127
  34.900       171
  35.000       345
  35.100      1108
  35.200      1246
  35.300       408
  35.400       146
  35.500        96
  35.600        96
  35.700       102
  35.800       144
  35.900       182
  36.000       285
  36.100       841
  36.200      3306
  36.300      4057
  36.400      1225
  36.500       285
  36.600       161
  36.700       112
  36.800        92
  36.900        92
  37.000        94
  37.100        92
  37.200        92
  37.300        81
  37.400        98
  37.500        96
  37.600       123
  37.700       376
  37.800       625
  37.900       268
  38.000       108
  38.100        86
  38.200        81
  38.300        65
  38.400        56
  38.500        72
  38.600        73
  38.700        67
  38.800        70
  38.900        56
  39.000        67
  39.100        84
  39.200        68
  39.300        65
  39.400        86
  39.500        56
  39.600        50
  39.700        50
  39.800        59
  39.900        64
  40.000        67
  40.100        54
  40.200        54
  40.300        60
  40.400        65
  40.500        65
  40.600        60
  40.700        70
  40.800        65
  40.900        60
  41.000        56
  41.100        62
  41.200        60
  41.300        59
  41.400        50
  41.500        65
  41.600        67
  41.700        88
  41.800        67
  41.900        67
  42.000        75
  42.100        62
  42.200        70
  42.300        73
  42.400        70
  42.500        68
  42.600        64
  42.700        82
  42.800        82
  42.900        79
  43.000       116
  43.100       148
  43.200       320
  43.300      1095
  43.400      1253
  43.500       576
  43.600       139
  43.700       106
  43.800        77
  43.900        96
  44.000        65
  44.100        59
  44.200        75
  44.300        65
  44.400        67
  44.500        65
  44.600        68
  44.700        57
  44.800        54
  44.900        67
  45.000        59
  45.100        64
  45.200        62
  45.300        65
  45.400        81
  45.500        54
  45.600        64
  45.700        54
  45.800        62
  45.900        90
  46.000        84
  46.100        90
  46.200        96
  46.300        90
  46.400        88
  46.500        88
  46.600       127
  46.700       161
  46.800       416
  46.900      1406
  47.000      3492
  47.100      2016
  47.200       650
  47.300       249
  47.400       327
  47.500       864
  47.600       812
  47.700       428
  47.800       139
  47.900        98
  48.000        82
  48.100        70
  48.200        84
  48.300        88
  48.400        50
  48.500        60
  48.600        51
  48.700        68
  48.800        67
  48.900        72
  49.000        70
  49.100        57
  49.200        43
  49.300        53
  49.400        68
  49.500        62
  49.600        64
  49.700        73
  49.800        50
  49.900        56
  50.000        62
  50.100        70
  50.200        53
  50.300        65
  50.400        36
  50.500        64
  50.600        64
  50.700        70
  50.800        53
  50.900        53
  51.000        56
  51.100        65
  51.200        51
  51.300        67
  51.400        62
  51.500        70
  51.600        68
  51.700        53
  51.800        67
  51.900        46
  52.000        65
  52.100        70
  52.200        77
  52.300        92
  52.400       187
  52.500       501
  52.600       519
  52.700       345
  52.800       112
  52.900        68
  53.000        67
  53.100        59
  53.200        40
  53.300        62
  53.400        62
  53.500        62
  53.600        60
  53.700        62
  53.800        59
  53.900        72
  54.000        65
  54.100        67
  54.200        53
  54.300        57
  54.400        54
  54.500        67
  54.600        57
  54.700        54
  54.800        56
  54.900        62
  55.000        56
  55.100        70
  55.200        72
  55.300        68
  55.400       114
  55.500       108
  55.600       252
  55.700       789
  55.800       841
  55.900       595
  56.000       201
  56.100       127
  56.200       116
  56.300       123
  56.400       225
  56.500       635
  56.600      1466
  56.700       789
  56.800       475
  56.900       132
  57.000       118
  57.100        90
  57.200       141
  57.300       201
  57.400       585
  57.500      1197
  57.600       729
  57.700       457
  57.800       144
  57.900        88
  58.000        72
  58.100        70
  58.200        84
  58.300        60
  58.400        67
  58.500        79
  58.600        72
  58.700        40
  58.800        50
  58.900        53
  59.000        59
  59.100        60
  59.200        60
  59.300        62
  59.400        59
  59.500        64
  59.600        84
  59.700        77
  59.800        94
  59.900        75
  60.000        75
  60.100        59
  60.200        53
  60.300        40
  60.400        68
  60.500        64
  60.600        65
  60.700        72
  60.800        60
  60.900        75
  61.000        86
  61.100       104
  61.200       114
  61.300       151
  61.400       114
  61.500        90
  61.600        56
  61.700        67
  61.800        70
  61.900        81
  62.000        53
  62.100        79
  62.200        86
  62.300        64
  62.400        86
  62.500        94
  62.600       144
  62.700       313
  62.800       924
  62.900      1056
  63.000       595
  63.100       361
  63.200       110
  63.300        77
  63.400        72
  63.500        84
  63.600        60
  63.700        64
  63.800        59
  63.900        59
  64.000        59
  64.100        57
  64.200        62
  64.300        59
  64.400        57
  64.500        54
  64.600        59
  64.700        50
  64.800        62
  64.900        60
  65.000        54
  65.100        53
  65.200        39
  65.300        56
  65.400        72
  65.500        53
  65.600        47
  65.700        68
  65.800        65
  65.900        62
  66.000        84
  66.100        92
  66.200       129
  66.300       201
  66.400       392
  66.500       571
  66.600       353
  66.700       313
  66.800       141
  66.900        90
  67.000        82
  67.100        62
  67.200        68
  67.300        90
  67.400        79
  67.500        96
  67.600       121
  67.700       148
  67.800       289
  67.900       817
  68.000       870
  68.100       745
  68.200       954
  68.300       432
  68.400       441
  68.500       249
  68.600       372
  68.700       334
  68.800       262
  68.900       222
  69.000       292
  69.100       506
  69.200       275
  69.300       282
  69.400        92
  69.500        82
  69.600        51
  69.700        54
  69.800        65
  69.900        47
  70.000        50
  70.100        62
  70.200        65
  70.300        56
  70.400        84
  70.500        73
  70.600        65
  70.700        56
  70.800        42
  70.900        44
  71.000        59
  71.100        50
  71.200        53
  71.300        56
  71.400        47
  71.500        50
  71.600        50
  71.700        44
  71.800        43
  71.900        62
  72.000        57
  72.100        42
  72.200        56
  72.300        49
  72.400        67
  72.500        86
  72.600        98
  72.700        81
  72.800        70
  72.900        54
  73.000        56
  73.100        44
  73.200        53
  73.300        47
  73.400        65
  73.500        43
  73.600        47
  73.700        50
  73.800        46
  73.900        42
  74.000        54
  74.100        60
  74.200        46
  74.300        70
  74.400        59
  74.500        72
  74.600        50
  74.700        37
  74.800        46
  74.900        51
  75.000        68
  75.100        56
  75.200        43
  75.300        60
  75.400        65
  75.500        47
  75.600        79
  75.700       139
  75.800       316
  75.900       246
  76.000       187
  76.100       156
  76.200        70
  76.300        72
  76.400        53
  76.500        62
  76.600        77
  76.700       108
  76.800       193
  76.900       384
  77.000       262
  77.100       216
  77.200       225
  77.300       121
  77.400       104
  77.500        77
  77.600        59
  77.700        62
  77.800        57
  77.900        56
  78.000        51
  78.100        67
  78.200        81
  78.300        43
  78.400        51
  78.500        51
  78.600        27
  78.700        56
  78.800        60
  78.900        38
  79.000        43
  79.100        54
  79.200        43
  79.300        34
  79.400        40
  79.500        53
  79.600        43
  79.700        54
  79.800        38
  79.900        50
  80.000        38
  80.100        64
  80.200        47
  80.300        50
  80.400        65
  80.500        65
  80.600        79
  80.700       118
  80.800        77
  80.900        86
  81.000        62
  81.100        72
  81.200        57
  81.300        79
  81.400       112
  81.500        75
  81.600        72
  81.700        70
  81.800        43
  81.900        44
  82.000        62
  82.100        50
  82.200        38
  82.300        46
  82.400        42
  82.500        34
  82.600        40
  82.700        43
  82.800        43
  82.900        43
  83.000        43
  83.100        40
  83.200        53
  83.300        46
  83.400        50
  83.500        50
  83.600        57
  83.700        40
  83.800        33
  83.900        43
  84.000        39
  84.100        67
  84.200        60
  84.300        90
  84.400        84
  84.500        67
  84.600        54
  84.700        53
  84.800        46
  84.900        49
  85.000        36
  85.100        49
  85.200        42
  85.300        42
  85.400        34
  85.500        36
  85.600        42
  85.700        46
  85.800        42
  85.900        54
  86.000        47
  86.100        38
  86.200        59
  86.300        75
  86.400        73
  86.500        59
  86.600        84
  86.700        56
  86.800        59
  86.900        65
  87.000        57
  87.100        77
  87.200       132
  87.300       384
  87.400       501
  87.500       225
  87.600       292
  87.700       190
  87.800        92
  87.900        64
  88.000        47
  88.100        65
  88.200        47
  88.300        46
  88.400        31
  88.500        32
  88.600        36
  88.700        39
  88.800        59
  88.900        77
  89.000       118
  89.100        82
  89.200        75
  89.300        90
  89.400        88
  89.500       136
  89.600       316
  89.700       207
  89.800       129
  89.900       193
  90.000        96
  90.100        56
  90.200        50
  90.300        42
  90.400        38
  90.500        50
  90.600        53
  90.700        59
  90.800        43
  90.900        59
  91.000        67
  91.100        94
  91.200       139
  91.300        75
  91.400        65
  91.500        82
  91.600        46
  91.700        47
  91.800        47
  91.900        50
  92.000        34
  92.100        34
  92.200        43
  92.300        40
  92.400        29
  92.500        43
  92.600        57
  92.700        84
  92.800       132
  92.900        77
  93.000        72
  93.100        90
  93.200        51
  93.300        37
  93.400        32
  93.500        38
  93.600        53
  93.700        40
  93.800        43
  93.900        49
  94.000        67
  94.100       121
  94.200       228
  94.300       141
  94.400       110
  94.500       121
  94.600        70
  94.700        54
  94.800        60
  94.900        57
  95.000        92
  95.100       134
  95.200       327
  95.300       488
  95.400       234
  95.500       201
  95.600       246
  95.700       148
  95.800        62
  95.900        59
  96.000        34
  96.100        32
  96.200        39
  96.300        46
  96.400        50
  96.500        37
  96.600        38
  96.700        38
  96.800        34
  96.900        38
  97.000        38
  97.100        29
  97.200        36
  97.300        38
  97.400        38
  97.500        34
  97.600        28
  97.700        38
  97.800        38
  97.900        47
  98.000        40
  98.100        42
  98.200        33
  98.300        54
  98.400        64
  98.500       104
  98.600       201
  98.700       144
  98.800        72
  98.900        90
  99.000       125
  99.100        56
  99.200        42
  99.300        40
  99.400        29
  99.500        33
  99.600        39
  99.700        44
  99.800        38
  99.900        34
 100.000        32
 100.100        28
 100.200        44
 100.300        36
 100.400        39
 100.500        44
 100.600        40
 100.700        50
 100.800        44
 100.900        72
 101.000       118
 101.100       196
 101.200        94
 101.300        68
 101.400       112
 101.500        77
 101.600        54
 101.700        47
 101.800        37
 101.900        29
 102.000        40
 102.100        40
 102.200        32
 102.300        59
 102.400        50
 102.500        39
 102.600        36
 102.700        59
 102.800        67
 102.900       132
 103.000       116
 103.100        82
 103.200        79
 103.300       134
 103.400        60
 103.500        56
 103.600        60
 103.700        56
 103.800        56
 103.900        79
 104.000        82
 104.100       246
 104.200       207
 104.300        79
 104.400        88
 104.500       144
 104.600        92
 104.700        57
 104.800        59
 104.900        32
 105.000        51
 105.100        47
 105.200        38
 105.300        46
 105.400        47
 105.500        56
 105.600        79
 105.700       136
 105.800       182
 105.900       110
 106.000        64
 106.100       100
 106.200        90
 106.300        59
 106.400        40
 106.500        38
 106.600        47
 106.700        40
 106.800        30
 106.900        33
 107.000        25
 107.100        38
 107.200        32
 107.300        57
 107.400        47
 107.500        53
 107.600        43
 107.700        43
 107.800        50
 107.900        39
 108.000        50
 108.100        38
 108.200        34
 108.300        43
 108.400        38
 108.500        30
 108.600        40
 108.700        32
 108.800        40
 108.900        36
 109.000        34
 109.100        37
 109.200        26
 109.300        49
 109.400        32
 109.500        39
 109.600        33
 109.700        46
 109.800        42
 109.900        39
 110.000        53
 110.100        57
 110.200        65
 110.300       116
 110.400       196
 110.500       108
 110.600        72
 110.700        64
 110.800       112
 110.900        90
 111.000        86
 111.100        60
 111.200        38
 111.300        50
 111.400        67
 111.500        42
 111.600        44
 111.700        32
 111.800        44
 111.900        39
 112.000        38
 112.100        32
 112.200        38
 112.300        47
 112.400        42
 112.500        36
 112.600        49
 112.700        59
 112.800        65
 112.900       136
 113.000       213
 113.100       176
 113.200       104
 113.300       104
 113.400       114
 113.500       121
 113.600        68
 113.700        51
 113.800        40
 113.900        39
 114.000        72
 114.100        59
 114.200        47
 114.300        44
 114.400        56
 114.500        50
 114.600        38
 114.700        36
 114.800        44
 114.900        37
 115.000        42
 115.100        37
 115.200        47
 115.300        50
 115.400        50
 115.500        49
 115.600        59
 115.700        37
 115.800        72
 115.900        88
 116.000       148
 116.100       246
 116.200       327
 116.300       436
 116.400       219
 116.500       161
 116.600       228
 116.700       216
 116.800       198
 116.900        96
 117.000        84
 117.100        70
 117.200        57
 117.300        56
 117.400        43
 117.500        39
 117.600        56
 117.700        67
 117.800        98
 117.900       102
 118.000        67
 118.100        62
 118.200        50
 118.300        72
 118.400        82
 118.500        56
 118.600        39
 118.700        38
 118.800        43
 118.900        29
 119.000        39
 119.100        44
 119.200        42
 119.300        43
 119.400        40
 119.500        37
 119.600        38
 119.700        30
 119.800        34
 119.900        42
 120.000        37
 120.100        43
 120.200        33
 120.300        33
 120.400        38
 120.500        38
 120.600        42
 120.700        36
 120.800        29
 120.900        38
 121.000        38
 121.100        57
 121.200        43
 121.300        54
 121.400        84
 121.500       136
 121.600       213
 121.700       132
 121.800        84
 121.900        86
 122.000       134
 122.100       169
 122.200       100
 122.300        57
 122.400        68
 122.500        56
 122.600        67
 122.700        56
 122.800        38
 122.900        36
 123.000        38
 123.100        30
 123.200        33
 123.300        38
 123.400        40
 123.500        43
 123.600        29
 123.700        37
 123.800        38
 123.900        30
 124.000        33
 124.100        43
 124.200        38
 124.300        34
 124.400        38
 124.500        49
 124.600        49
 124.700        53
 124.800        43
 124.900        44
 125.000        51
 125.100        77
 125.200        84
 125.300        50
 125.400        59
 125.500        47
 125.600        34
 125.700        62
 125.800        70
 125.900        79
 126.000       123
 126.100       225
 126.200       295
 126.300       161
 126.400        90
 126.500        81
 126.600        88
 126.700       146
 126.800       121
 126.900        98
 127.000        64
 127.100        43
 127.200        50
 127.300        46
 127.400        56
 127.500        82
 127.600       136
 127.700       174
 127.800       121
 127.900        62
 128.000        67
 128.100        60
 128.200        96
 128.300       112
 128.400        84
 128.500        51
 128.600        33
 128.700        37
 128.800        46
 128.900        38
 129.000        53
 129.100        36
 129.200        46
 129.300        43
 129.400        56
 129.500        43
 129.600        50
 129.700        47
 129.800        86
 129.900        84
 130.000        72
 130.100        49
 130.200        50
 130.300        47
 130.400        47
 130.500        64
 130.600        46
 130.700        57
 130.800        32
 130.900        70
 131.000        68
 131.100       102
 131.200        88
 131.300        50
 131.400        60
 131.500        53
 131.600        39
 131.700        72
 131.800        64
 131.900        64
 132.000        51
 132.100        47
 132.200        43
 132.300        47
 132.400        50
 132.500        39
 132.600        38
 132.700        53
 132.800        33
 132.900        46
 133.000        38
 133.100        44
 133.200        50
 133.300        37
 133.400        46
 133.500        47
 133.600        54
 133.700        70
 133.800       102
 133.900       166
 134.000       182
 134.100       104
 134.200        62
 134.300        56
 134.400        67
 134.500        96
 134.600       127
 134.700       110
 134.800        94
 134.900        75
 135.000        98
 135.100       116
 135.200       132
 135.300       106
 135.400        77
 135.500        70
 135.600        73
 135.700        64
 135.800        98
 135.900       144
 136.000       198
 136.100       275
 136.200       184
 136.300       108
 136.400        84
 136.500       100
 136.600       108
 136.700       129
 136.800       144
 136.900       104
 137.000        79
 137.100        64
 137.200        75
 137.300        60
 137.400        62
 137.500        50
 137.600        49
 137.700        43
 137.800        50
 137.900        50
 138.000        53
 138.100        56
 138.200        46
 138.300        64
 138.400        62
 138.500        94
 138.600       110
 138.700        75
 138.800        77
 138.900        53
 139.000        43
 139.100        57
 139.200        43
 139.300        79
 139.400        70
 139.500        53
 139.600        38
 139.700        53
 139.800        43
 139.900        50
 140.000        39
 140.100        47
 140.200        38
 140.300        49
 140.400        47
 140.500        47
 140.600        42
 140.700        43
 140.800        43
 140.900        56
 141.000        40
 141.100        46
 141.200        40
 141.300        37
 141.400        43
 141.500        40
 141.600        50
 141.700        53
 141.800        59
 141.900        50
 142.000        53
 142.100        59
 142.200        59
 142.300        81
 142.400        62
 142.500        59
 142.600        68
 142.700        75
 142.800        94
 142.900       148
 143.000       171
 143.100       114
 143.200        84
 143.300        72
 143.400        49
 143.500        56
 143.600        70
 143.700        96
 143.800        79
 143.900        94
 144.000        53
 144.100        50
 144.200        53
 144.300        43
 144.400        47
 144.500        42
 144.600        51
 144.700        54
 144.800        67
 144.900        53
 145.000        75
 145.100        84
 145.200       132
 145.300       114
 145.400        72
 145.500        60
 145.600        54
 145.700        65
 145.800        50
 145.900        59
 146.000        72
 146.100        73
 146.200        86
 146.300        53
 146.400        62
 146.500        42
 146.600        50
 146.700        49
 146.800        49
 146.900        49
 147.000        47
 147.100        50
 147.200        47
 147.300        57
 147.400        53
 147.500        59
 147.600        40
 147.700        43
 147.800        40
 147.900        47
 148.000        47
 148.100        43
 148.200        36
 148.300        38
 148.400        51
 148.500        53
 148.600        49
 148.700        43
 148.800        67
 148.900        53
 149.000        70
 149.100        77
 149.200       104
 149.300        96
 149.400        84
 149.500        67
 149.600        67
 149.700        64
 149.800        82
 149.900        88
 150.000       121