File: data/XRD/CPD-1H.PRN
   5.000       158
   5.100       163
   5.200       141
   5.300       151
   5.400       153
   5.500       144
   5.600       144
   5.700       146
   5.800       125
   5.900       112
   6.000       134
   6.100       139
   6.200       112
   6.300       121
   6.400       129
   6.500       106
   6.600        98
   6.700       114
   6.800        92
   6.900       108
   7.000       114
   7.100       114
   7.200        96
   7.300        96
   7.400        79
   7.500       110
   7.600        98
   7.700        96
   7.800        88
   7.900        79
   8.000       102
   8.100       100
   8.200        82
   8.300        86
   8.400       100
   8.500        77
   8.600        90
   8.700        82
   8.800        65
   8.900        79
   9.000        77
   9.100        67
   9.200        65
   9.300        72
   9.400        67
   9.500        57
   9.600        70
   9.700        67
   9.800        56
   9.900        68
  10.000        64
  10.100        73
  10.200        75
  10.300        64
  10.400        62
  10.500        53
  10.600        67
  10.700        70
  10.800        56
  10.900        60
  11.000        62
  11.100        70
  11.200        60
  11.300        54
  11.400        59
  11.500        59
  11.600        60
  11.700        64
  11.800        50
  11.900        54
  12.000        64
  12.100        47
  12.200        56
  12.300        60
  12.400        50
  12.500        75
  12.600        44
  12.700        46
  12.800        62
  12.900        56
  13.000        56
  13.100        51
  13.200        42
  13.300        59
  13.400        47
  13.500        53
  13.600        53
  13.700        54
  13.800        46
  13.900        42
  14.000        40
  14.100        43
  14.200        42
  14.300        40
  14.400        49
  14.500        50
  14.600        44
  14.700        47
  14.800        42
  14.900        43
  15.000        32
  15.100        56
  15.200        37
  15.300        38
  15.400        38
  15.500        32
  15.600        40
  15.700        43
  15.800        38
  15.900        38
  16.000        51
  16.100        50
  16.200        43
  16.300        47
  16.400        47
  16.500        40
  16.600        37
  16.700        32
  16.800        29
  16.900        33
  17.000        34
  17.100        37
  17.200        29
  17.300        50
  17.400        32
  17.500        50
  17.600        46
  17.700        32
  17.800        36
  17.900        50
  18.000        38
  18.100        37
  18.200        42
  18.300        38
  18.400        34
  18.500        39
  18.600        28
  18.700        46
  18.800        38
  18.900        50
  19.000        47
  19.100        37
  19.200        32
  19.300        32
  19.400        30
  19.500        38
  19.600        37
  19.700        37
  19.800        32
  19.900        38
  20.000        38
  20.100        30
  20.200        29
  20.300        34
  20.400        31
  20.500        37
  20.600        29
  20.700        20
  20.800        29
  20.900        42
  21.000        34
  21.100        33
  21.200        28
  21.300        28
  21.400        34
  21.500        37
  21.600        43
  21.700        25
  21.800        25
  21.900        32
  22.000        33
  22.100        38
  22.200        37
  22.300        25
  22.400        43
  22.500        40
  22.600        28
  22.700        29
  22.800        30
  22.900        28
  23.000        34
  23.100        39
  23.200        28
  23.300        32
  23.400        26
  23.500        29
  23.600        37
  23.700        27
  23.800        37
  23.900        27
  24.000        32
  24.100        30
  24.200        27
  24.300        27
  24.400        30
  24.500        29
  24.600        24
  24.700        42
  24.800        36
  24.900        39
  25.000        31
  25.100        38
  25.200        50
  25.300        47
  25.400        98
  25.500       324
  25.600       992
  25.700       441
  25.800        68
  25.900        43
  26.000        38
  26.100        27
  26.200        34
  26.300        27
  26.400        29
  26.500        33
  26.600        37
  26.700        38
  26.800        30
  26.900        28
  27.000        44
  27.100        28
  27.200        36
  27.300        39
  27.400        30
  27.500        34
  27.600        43
  27.700        49
  27.800        68
  27.900        90
  28.000       132
  28.100       361
  28.200      1632
  28.300      5791
  28.400      2256
  28.500       240
  28.600       136
  28.700        75
  28.800        51
  28.900        49
  29.000        42
  29.100        42
  29.200        30
  29.300        47
  29.400        33
  29.500        33
  29.600        39
  29.700        33
  29.800        23
  29.900        31
  30.000        28
  30.100        31
  30.200        30
  30.300        39
  30.400        30
  30.500        44
  30.600        37
  30.700        34
  30.800        47
  30.900        43
  31.000        40
  31.100        47
  31.200        47
  31.300        68
  31.400        94
  31.500       132
  31.600       299
  31.700      1062
  31.800      3994
  31.900      1900
  32.000       282
  32.100       114
  32.200        72
  32.300        50
  32.400        56
  32.500        50
  32.600        54
  32.700        54
  32.800        70
  32.900        47
  33.000        51
  33.100        46
  33.200        34
  33.300        50
  33.400        47
  33.500        38
  33.600        33
  33.700        43
  33.800        43
  33.900        50
  34.000        60
  34.100        68
  34.200        94
  34.300       313
  34.400      1600
  34.500      2381
  34.600       696
  34.700       156
  34.800       104
  34.900       104
  35.000       171
  35.100       576
  35.200      1521
  35.300       702
  35.400       144
  35.500       104
  35.600        82
  35.700        70
  35.800       100
  35.900       151
  36.000       193
  36.100       556
  36.200      2313
  36.300      6512
  36.400      3036
  36.500       432
  36.600       184
  36.700        90
  36.800        67
  36.900        62
  37.000        56
  37.100        38
  37.200        49
  37.300        42
  37.400        50
  37.500        50
  37.600        72
  37.700       156
  37.800       610
  37.900       372
  38.000        79
  38.100        56
  38.200        34
  38.300        40
  38.400        28
  38.500        23
  38.600        29
  38.700        22
  38.800        25
  38.900        37
  39.000        27
  39.100        27
  39.200        28
  39.300        30
  39.400        32
  39.500        27
  39.600        32
  39.700        24
  39.800        23
  39.900        27
  40.000        25
  40.100        33
  40.200        23
  40.300        38
  40.400        37
  40.500        26
  40.600        26
  40.700        29
  40.800        23
  40.900        32
  41.000        30
  41.100        32
  41.200        30
  41.300        27
  41.400        32
  41.500        27
  41.600        28
  41.700        32
  41.800        31
  41.900        32
  42.000        32
  42.100        32
  42.200        44
  42.300        31
  42.400        33
  42.500        31
  42.600        26
  42.700        38
  42.800        43
  42.900        59
  43.000        47
  43.100        56
  43.200       134
  43.300       566
  43.400      1584
  43.500       852
  43.600       169
  43.700        56
  43.800        44
  43.900        26
  44.000        34
  44.100        29
  44.200        30
  44.300        39
  44.400        28
  44.500        32
  44.600        32
  44.700        38
  44.800        32
  44.900        47
  45.000        32
  45.100        33
  45.200        32
  45.300        38
  45.400        32
  45.500        31
  45.600        36
  45.700        33
  45.800        40
  45.900        37
  46.000        44
  46.100        44
  46.200        70
  46.300        56
  46.400        60
  46.500        75
  46.600        96
  46.700       141
  46.800       252
  46.900       846
  47.000      4542
  47.100      3398
  47.200      1806
  47.300       324
  47.400       249
  47.500       615
  47.600      1324
  47.700       767
  47.800       204
  47.900        79
  48.000        70
  48.100        51
  48.200        46
  48.300        38
  48.400        33
  48.500        33
  48.600        26
  48.700        38
  48.800        32
  48.900        47
  49.000        23
  49.100        32
  49.200        33
  49.300        34
  49.400        34
  49.500        42
  49.600        28
  49.700        23
  49.800        29
  49.900        32
  50.000        38
  50.100        38
  50.200        36
  50.300        26
  50.400        26
  50.500        26
  50.600        26
  50.700        32
  50.800        37
  50.900        38
  51.000        23
  51.100        33
  51.200        27
  51.300        26
  51.400        32
  51.500        37
  51.600        34
  51.700        43
  51.800        25
  51.900        27
  52.000        32
  52.100        36
  52.200        42
  52.300        53
  52.400        79
  52.500       265
  52.600       676
  52.700       372
  52.800       132
  52.900        50
  53.000        46
  53.100        38
  53.200        29
  53.300        32
  53.400        32
  53.500        30
  53.600        34
  53.700        22
  53.800        31
  53.900        36
  54.000        37
  54.100        32
  54.200        26
  54.300        34
  54.400        38
  54.500        39
  54.600        29
  54.700        38
  54.800        32
  54.900        30
  55.000        50
  55.100        33
  55.200        44
  55.300        54
  55.400        73
  55.500        81
  55.600       146
  55.700       635
  55.800      1592
  55.900       846
  56.000       420
  56.100        86
  56.200        98
  56.300        88
  56.400       141
  56.500       316
  56.600      1840
  56.700      1169
  56.800      1011
  56.900       225
  57.000        96
  57.100        77
  57.200        84
  57.300       112
  57.400       252
  57.500      1135
  57.600       858
  57.700       702
  57.800       161
  57.900        79
  58.000        51
  58.100        40
  58.200        53
  58.300        30
  58.400        43
  58.500        57
  58.600        38
  58.700        38
  58.800        23
  58.900        30
  59.000        39
  59.100        31
  59.200        32
  59.300        32
  59.400        31
  59.500        31
  59.600        32
  59.700        47
  59.800        65
  59.900        42
  60.000        57
  60.100        38
  60.200        33
  60.300        25
  60.400        32
  60.500        37
  60.600        38
  60.700        28
  60.800        33
  60.900        40
  61.000        42
  61.100        56
  61.200        88
  61.300       121
  61.400        98
  61.500        82
  61.600        49
  61.700        43
  61.800        31
  61.900        37
  62.000        32
  62.100        33
  62.200        31
  62.300        38
  62.400        43
  62.500        62
  62.600       108
  62.700       156
  62.800       595
  62.900      1772
  63.000       707
  63.100       691
  63.200       151
  63.300        62
  63.400        57
  63.500        53
  63.600        50
  63.700        32
  63.800        38
  63.900        32
  64.000        43
  64.100        37
  64.200        36
  64.300        36
  64.400        30
  64.500        30
  64.600        39
  64.700        37
  64.800        34
  64.900        30
  65.000        32
  65.100        27
  65.200        31
  65.300        32
  65.400        23
  65.500        34
  65.600        29
  65.700        43
  65.800        32
  65.900        39
  66.000        40
  66.100        51
  66.200        65
  66.300       112
  66.400       372
  66.500       457
  66.600       492
  66.700       282
  66.800       158
  66.900        62
  67.000        57
  67.100        46
  67.200        47
  67.300        51
  67.400        50
  67.500        54
  67.600        68
  67.700       100
  67.800       169
  67.900       556
  68.000      1505
  68.100       655
  68.200      1239
  68.300       640
  68.400       424
  68.500       309
  68.600       299
  68.700       635
  68.800       252
  68.900       342
  69.000       210
  69.100       696
  69.200       380
  69.300       392
  69.400       198
  69.500        67
  69.600        53
  69.700        39
  69.800        39
  69.900        53
  70.000        37
  70.100        32
  70.200        32
  70.300        28
  70.400        40
  70.500        29
  70.600        32
  70.700        28
  70.800        25
  70.900        23
  71.000        26
  71.100        23
  71.200        28
  71.300        26
  71.400        31
  71.500        25
  71.600        32
  71.700        25
  71.800        23
  71.900        28
  72.000        32
  72.100        19
  72.200        25
  72.300        26
  72.400        25
  72.500        56
  72.600       163
  72.700        54
  72.800        94
  72.900        50
  73.000        32
  73.100        32
  73.200        20
  73.300        29
  73.400        27
  73.500        22
  73.600        20
  73.700        30
  73.800        10
  73.900        25
  74.000        29
  74.100        29
  74.200        25
  74.300        50
  74.400        30
  74.500        42
  74.600        38
  74.700        34
  74.800        29
  74.900        40
  75.000        21
  75.100        26
  75.200        38
  75.300        28
  75.400        28
  75.500        30
  75.600        46
  75.700       102
  75.800       320
  75.900       400
  76.000       187
  76.100       246
  76.200        96
  76.300        33
  76.400        33
  76.500        38
  76.600        33
  76.700        53
  76.800       112
  76.900       302
  77.000       342
  77.100       222
  77.200       246
  77.300       198
  77.400        75
  77.500        79
  77.600        50
  77.700        27
  77.800        20
  77.900        39
  78.000        38
  78.100        29
  78.200        50
  78.300        29
  78.400        53
  78.500        27
  78.600        23
  78.700        47
  78.800        21
  78.900        21
  79.000        22
  79.100        12
  79.200        21
  79.300        20
  79.400        33
  79.500        19
  79.600        21
  79.700        28
  79.800        32
  79.900        24
  80.000        24
  80.100        21
  80.200        24
  80.300        25
  80.400        32
  80.500        28
  80.600        34
  80.700       114
  80.800        59
  80.900        53
  81.000        65
  81.100        32
  81.200        30
  81.300        40
  81.400       118
  81.500        75
  81.600        49
  81.700        67
  81.800        31
  81.900        24
  82.000        22
  82.100        22
  82.200        38
  82.300        24
  82.400        27
  82.500        31
  82.600        26
  82.700        22
  82.800        30
  82.900        19
  83.000        26
  83.100        30
  83.200        29
  83.300        38
  83.400        37
  83.500        30
  83.600        22
  83.700        38
  83.800        30
  83.900        12
  84.000        23
  84.100        38
  84.200        28
  84.300        50
  84.400        79
  84.500        44
  84.600        38
  84.700        34
  84.800        40
  84.900        25
  85.000        26
  85.100        33
  85.200        33
  85.300        32
  85.400        34
  85.500        38
  85.600        26
  85.700        30
  85.800        20
  85.900        37
  86.000        31
  86.100        29
  86.200        24
  86.300        46
  86.400        64
  86.500        77
  86.600        72
  86.700        62
  86.800        57
  86.900        43
  87.000        51
  87.100        64
  87.200       100
  87.300       368
  87.400       829
  87.500       331
  87.600       316
  87.700       404
  87.800       123
  87.900        75
  88.000        51
  88.100        31
  88.200        28
  88.300        39
  88.400        28
  88.500        43
  88.600        37
  88.700        33
  88.800        50
  88.900        50
  89.000       118
  89.100        98
  89.200        65
  89.300        90
  89.400        65
  89.500        96
  89.600       357
  89.700       353
  89.800       129
  89.900       237
  90.000       182
  90.100        59
  90.200        37
  90.300        30
  90.400        21
  90.500        23
  90.600        29
  90.700        44
  90.800        62
  90.900        42
  91.000        34
  91.100        59
  91.200       125
  91.300        86
  91.400        59
  91.500        86
  91.600        47
  91.700        26
  91.800        32
  91.900        32
  92.000        31
  92.100        28
  92.200        23
  92.300        19
  92.400        30
  92.500        38
  92.600        31
  92.700        67
  92.800       158
  92.900       116
  93.000        70
  93.100        88
  93.200        68
  93.300        37
  93.400        28
  93.500        32
  93.600        34
  93.700        31
  93.800        29
  93.900        37
  94.000        62
  94.100       106
  94.200       334
  94.300       198
  94.400       110
  94.500       176
  94.600       136
  94.700        65
  94.800        53
  94.900        64
  95.000        60
  95.100        92
  95.200       216
  95.300       620
  95.400       408
  95.500       171
  95.600       289
  95.700       222
  95.800        67
  95.900        36
  96.000        38
  96.100        40
  96.200        37
  96.300        32
  96.400        26
  96.500        20
  96.600        30
  96.700        25
  96.800        27
  96.900        25
  97.000        27
  97.100        34
  97.200        27
  97.300        29
  97.400        19
  97.500        22
  97.600        19
  97.700        26
  97.800        25
  97.900        36
  98.000        25
  98.100        43
  98.200        38
  98.300        43
  98.400        72
  98.500        73
  98.600       190
  98.700       234
  98.800        70
  98.900        79
  99.000       146
  99.100        65
  99.200        50
  99.300        37
  99.400        30
  99.500        30
  99.600        24
  99.700        27
  99.800        20
  99.900        26
 100.000        32
 100.100        33
 100.200        28
 100.300        22
 100.400        25
 100.500        17
 100.600        28
 100.700        38
 100.800        32
 100.900        43
 101.000        72
 101.100       176
 101.200       100
 101.300        57
 101.400        82
 101.500        86
 101.600        54
 101.700        22
 101.800        32
 101.900        32
 102.000        26
 102.100        23
 102.200        28
 102.300        40
 102.400        22
 102.500        34
 102.600        27
 102.700        42
 102.800        42
 102.900       136
 103.000       176
 103.100        70
 103.200        65
 103.300       127
 103.400       116
 103.500        44
 103.600        47
 103.700        43
 103.800        44
 103.900        43
 104.000        65
 104.100       187
 104.200       338
 104.300       118
 104.400        84
 104.500       134
 104.600       132
 104.700        60
 104.800        38
 104.900        50
 105.000        30
 105.100        25
 105.200        39
 105.300        34
 105.400        43
 105.500        34
 105.600        53
 105.700       118
 105.800       249
 105.900       169
 106.000        82
 106.100        79
 106.200       146
 106.300        65
 106.400        53
 106.500        38
 106.600        38
 106.700        33
 106.800        42
 106.900        27
 107.000        26
 107.100        27
 107.200        24
 107.300        37
 107.400        47
 107.500        67
 107.600        36
 107.700        30
 107.800        38
 107.900        53
 108.000        46
 108.100        31
 108.200        25
 108.300        43
 108.400        22
 108.500        37
 108.600        29
 108.700        23
 108.800        24
 108.900        28
 109.000        32
 109.100        31
 109.200        29
 109.300        31
 109.400        32
 109.500        28
 109.600        32
 109.700        32
 109.800        28
 109.900        38
 110.000        26
 110.100        43
 110.200        53
 110.300        77
 110.400       190
 110.500       141
 110.600        70
 110.700        72
 110.800       129
 110.900        98
 111.000        75
 111.100        62
 111.200        39
 111.300        47
 111.400        49
 111.500        43
 111.600        31
 111.700        25
 111.800        28
 111.900        25
 112.000        25
 112.100        38
 112.200        32
 112.300        54
 112.400        32
 112.500        37
 112.600        42
 112.700        44
 112.800        79
 112.900       114
 113.000       265
 113.100       285
 113.200       146
 113.300        86
 113.400       156
 113.500       179
 113.600       114
 113.700        59
 113.800        50
 113.900        38
 114.000        54
 114.100        72
 114.200        50
 114.300        31
 114.400        43
 114.500        44
 114.600        46
 114.700        34
 114.800        32
 114.900        38
 115.000        26
 115.100        32
 115.200        32
 115.300        43
 115.400        43
 115.500        82
 115.600        59
 115.700        56
 115.800        50
 115.900        53
 116.000       110
 116.100       210
 116.200       299
 116.300       506
 116.400       324
 116.500       176
 116.600       210
 116.700       246
 116.800       262
 116.900       116
 117.000        86
 117.100        65
 117.200        47
 117.300        47
 117.400        42
 117.500        37
 117.600        36
 117.700        43
 117.800        75
 117.900       100
 118.000        72
 118.100        43
 118.200        38
 118.300        38
 118.400        47
 118.500        42
 118.600        43
 118.700        31
 118.800        26
 118.900        20
 119.000        31
 119.100        32
 119.200        22
 119.300        30
 119.400        26
 119.500        27
 119.600        33
 119.700        27
 119.800        29
 119.900        32
 120.000        28
 120.100        20
 120.200        39
 120.300        28
 120.400        31
 120.500        46
 120.600        31
 120.700        40
 120.800        29
 120.900        33
 121.000        38
 121.100        36
 121.200        39
 121.300        46
 121.400        57
 121.500       144
 121.600       278
 121.700       153
 121.800        96
 121.900        77
 122.000       108
 122.100       190
 122.200       132
 122.300        62
 122.400        44
 122.500        50
 122.600        54
 122.700        38
 122.800        33
 122.900        27
 123.000        36
 123.100        32
 123.200        32
 123.300        40
 123.400        37
 123.500        34
 123.600        24
 123.700        30
 123.800        25
 123.900        42
 124.000        32
 124.100        38
 124.200        43
 124.300        37
 124.400        33
 124.500        47
 124.600        50
 124.700        54
 124.800        34
 124.900        40
 125.000        33
 125.100        53
 125.200        75
 125.300        56
 125.400        34
 125.500        46
 125.600        37
 125.700        59
 125.800        60
 125.900        77
 126.000       129
 126.100       265
 126.200       400
 126.300       246
 126.400       127
 126.500        94
 126.600       108
 126.700       196
 126.800       216
 126.900       106
 127.000        84
 127.100        59
 127.200        39
 127.300        53
 127.400        47
 127.500        64
 127.600       110
 127.700       174
 127.800       118
 127.900        70
 128.000        57
 128.100        62
 128.200        67
 128.300        86
 128.400        67
 128.500        59
 128.600        51
 128.700        32
 128.800        26
 128.900        24
 129.000        26
 129.100        34
 129.200        21
 129.300        32
 129.400        27
 129.500        38
 129.600        59
 129.700        46
 129.800        59
 129.900        98
 130.000        67
 130.100        40
 130.200        38
 130.300        50
 130.400        59
 130.500        59
 130.600        49
 130.700        39
 130.800        40
 130.900        47
 131.000        60
 131.100        72
 131.200        90
 131.300        62
 131.400        44
 131.500        33
 131.600        43
 131.700        51
 131.800        53
 131.900        50
 132.000        37
 132.100        34
 132.200        40
 132.300        33
 132.400        46
 132.500        31
 132.600        38
 132.700        43
 132.800        44
 132.900        36
 133.000        33
 133.100        38
 133.200        33
 133.300        33
 133.400        43
 133.500        50
 133.600        32
 133.700        65
 133.800        92
 133.900       163
 134.000       237
 134.100       153
 134.200        70
 134.300        68
 134.400        56
 134.500        82
 134.600       129
 134.700       121
 134.800        90
 134.900        62
 135.000        98
 135.100       110
 135.200       156
 135.300       136
 135.400        94
 135.500        65
 135.600        75
 135.700        92
 135.800       100
 135.900       163
 136.000       184
 136.100       265
 136.200       204
 136.300       118
 136.400        82
 136.500        86
 136.600       118
 136.700       114
 136.800       161
 136.900       129
 137.000        64
 137.100        49
 137.200        70
 137.300        64
 137.400        44
 137.500        50
 137.600        44
 137.700        32
 137.800        29
 137.900        37
 138.000        43
 138.100        29
 138.200        47
 138.300        43
 138.400        82
 138.500       106
 138.600       114
 138.700        77
 138.800        37
 138.900        37
 139.000        43
 139.100        46
 139.200        44
 139.300        81
 139.400        64
 139.500        51
 139.600        46
 139.700        40
 139.800        29
 139.900        31
 140.000        31
 140.100        30
 140.200        30
 140.300        26
 140.400        34
 140.500        37
 140.600        39
 140.700        43
 140.800        27
 140.900        32
 141.000        36
 141.100        43
 141.200        38
 141.300        33
 141.400        39
 141.500        33
 141.600        33
 141.700        38
 141.800        39
 141.900        37
 142.000        51
 142.100        43
 142.200        60
 142.300        62
 142.400        67
 142.500        51
 142.600        54
 142.700        50
 142.800        92
 142.900       146
 143.000       176
 143.100       132
 143.200        75
 143.300        79
 143.400        68
 143.500        46
 143.600        54
 143.700        64
 143.800        82
 143.900        94
 144.000        75
 144.100        49
 144.200        43
 144.300        47
 144.400        36
 144.500        37
 144.600        36
 144.700        42
 144.800        32
 144.900        50
 145.000        67
 145.100        82
 145.200       134
 145.300       110
 145.400        65
 145.500        62
 145.600        50
 145.700        62
 145.800        38
 145.900        44
 146.000        79
 146.100        81
 146.200        68
 146.300        64
 146.400        47
 146.500        46
 146.600        32
 146.700        38
 146.800        27
 146.900        38
 147.000        30
 147.100        39
 147.200        31
 147.300        32
 147.400        33
 147.500        30
 147.600        33
 147.700        32
 147.800        31
 147.900        27
 148.000        42
 148.100        33
 148.200        36
 148.300        42
 148.400        49
 148.500        39
 148.600        44
 148.700        54
 148.800        28
 148.900        51
 149.000        50
 149.100        82
 149.200        86
 149.300        84
 149.400        77
 149.500        60
 149.600        59
 149.700        65
 149.800        59
 149.900        77
 150.000        86