File: data/XRD/CPD-4.PRN
   5.000       166
   5.100       179
   5.200       166
   5.300       148
   5.400       134
   5.500       151
   5.600       166
   5.700       144
   5.800       144
   5.900       161
   6.000       134
   6.100       121
   6.200       132
   6.300       118
   6.400       123
   6.500       118
   6.600       127
   6.700       121
   6.800       116
   6.900        88
   7.000       106
   7.100       112
   7.200       123
   7.300       121
   7.400       106
   7.500        96
   7.600       129
   7.700       104
   7.800       104
   7.900        98
   8.000       102
   8.100       100
   8.200        84
   8.300        81
   8.400        88
   8.500        90
   8.600        82
   8.700       104
   8.800        90
   8.900        77
   9.000        92
   9.100        98
   9.200        81
   9.300        90
   9.400        75
   9.500       100
   9.600        84
   9.700        77
   9.800        86
   9.900        72
  10.000        68
  10.100        65
  10.200        73
  10.300        73
  10.400        51
  10.500        75
  10.600        60
  10.700        73
  10.800        60
  10.900        60
  11.000        67
  11.100        64
  11.200        43
  11.300        65
  11.400        60
  11.500        67
  11.600        62
  11.700        72
  11.800        60
  11.900        65
  12.000        64
  12.100        70
  12.200        75
  12.300        50
  12.400        64
  12.500        51
  12.600        51
  12.700        57
  12.800        53
  12.900        53
  13.000        51
  13.100        59
  13.200        44
  13.300        50
  13.400        53
  13.500        50
  13.600        64
  13.700        56
  13.800        53
  13.900        46
  14.000        56
  14.100        50
  14.200        59
  14.300        62
  14.400        36
  14.500        54
  14.600        50
  14.700        56
  14.800        51
  14.900        50
  15.000        53
  15.100        37
  15.200        46
  15.300        47
  15.400        40
  15.500        42
  15.600        43
  15.700        49
  15.800        32
  15.900        38
  16.000        46
  16.100        47
  16.200        38
  16.300        37
  16.400        43
  16.500        33
  16.600        36
  16.700        38
  16.800        43
  16.900        27
  17.000        43
  17.100        47
  17.200        37
  17.300        44
  17.400        36
  17.500        47
  17.600        36
  17.700        59
  17.800        32
  17.900        38
  18.000        47
  18.100        43
  18.200        90
  18.300       148
  18.400        54
  18.500        40
  18.600        36
  18.700        38
  18.800        43
  18.900        36
  19.000        47
  19.100        40
  19.200        42
  19.300        40
  19.400        46
  19.500        57
  19.600        57
  19.700       123
  19.800       259
  19.900      1128
  20.000      1944
  20.100       246
  20.200        75
  20.300        62
  20.400        47
  20.500        46
  20.600        38
  20.700        56
  20.800        39
  20.900        43
  21.000        36
  21.100        29
  21.200        44
  21.300        39
  21.400        38
  21.500        34
  21.600        31
  21.700        37
  21.800        26
  21.900        29
  22.000        36
  22.100        29
  22.200        38
  22.300        29
  22.400        37
  22.500        29
  22.600        30
  22.700        36
  22.800        27
  22.900        30
  23.000        40
  23.100        29
  23.200        30
  23.300        39
  23.400        31
  23.500        29
  23.600        33
  23.700        34
  23.800        25
  23.900        37
  24.000        29
  24.100        22
  24.200        34
  24.300        30
  24.400        34
  24.500        28
  24.600        34
  24.700        36
  24.800        32
  24.900        36
  25.000        39
  25.100        50
  25.200        49
  25.300        82
  25.400       201
  25.500       806
  25.600      1332
  25.700       243
  25.800        82
  25.900        46
  26.000        50
  26.100        47
  26.200        56
  26.300        50
  26.400        67
  26.500        75
  26.600       163
  26.700       256
  26.800       595
  26.900      2125
  27.000      2992
  27.100       484
  27.200       166
  27.300        98
  27.400        67
  27.500        84
  27.600        47
  27.700        72
  27.800        56
  27.900        36
  28.000        49
  28.100        38
  28.200        40
  28.300        44
  28.400        43
  28.500        47
  28.600        34
  28.700        38
  28.800        32
  28.900        36
  29.000        43
  29.100        32
  29.200        33
  29.300        29
  29.400        28
  29.500        36
  29.600        38
  29.700        23
  29.800        42
  29.900        56
  30.000       166
  30.100       268
  30.200        96
  30.300        54
  30.400        37
  30.500        31
  30.600        23
  30.700        34
  30.800        26
  30.900        27
  31.000        32
  31.100        43
  31.200        25
  31.300        19
  31.400        26
  31.500        23
  31.600        32
  31.700        30
  31.800        20
  31.900        27
  32.000        38
  32.100        43
  32.200        25
  32.300        27
  32.400        24
  32.500        32
  32.600        32
  32.700        30
  32.800        26
  32.900        36
  33.000        33
  33.100        22
  33.200        39
  33.300        32
  33.400        34
  33.500        34
  33.600        59
  33.700       182
  33.800       213
  33.900        79
  34.000        42
  34.100        42
  34.200        32
  34.300        36
  34.400        40
  34.500        44
  34.600        50
  34.700        62
  34.800        67
  34.900       121
  35.000       380
  35.100      1857
  35.200      1664
  35.300       650
  35.400      1095
  35.500      1122
  35.600       718
  35.700       262
  35.800       106
  35.900        65
  36.000        59
  36.100        47
  36.200        34
  36.300        30
  36.400        40
  36.500        31
  36.600        29
  36.700        27
  36.800        42
  36.900        50
  37.000        50
  37.100        75
  37.200        65
  37.300        34
  37.400        50
  37.500        56
  37.600       112
  37.700       462
  37.800       767
  37.900       299
  38.000        56
  38.100        57
  38.200        62
  38.300        82
  38.400       166
  38.500       552
  38.600       285
  38.700        65
  38.800        57
  38.900        27
  39.000        37
  39.100        38
  39.200        25
  39.300        28
  39.400        27
  39.500        34
  39.600        16
  39.700        27
  39.800        23
  39.900        20
  40.000        31
  40.100        29
  40.200        22
  40.300        38
  40.400        43
  40.500       106
  40.600       174
  40.700       231
  40.800       104
  40.900        25
  41.000        26
  41.100        25
  41.200        31
  41.300        26
  41.400        29
  41.500        24
  41.600        27
  41.700        44
  41.800        38
  41.900        15
  42.000        20
  42.100        25
  42.200        28
  42.300        26
  42.400        25
  42.500        27
  42.600        23
  42.700        43
  42.800        62
  42.900       100
  43.000       723
  43.100       484
  43.200       497
  43.300      1755
  43.400      1632
  43.500       789
  43.600       201
  43.700       388
  43.800       306
  43.900       158
  44.000        59
  44.100        53
  44.200        38
  44.300        34
  44.400        28
  44.500        32
  44.600        32
  44.700        28
  44.800        17
  44.900        23
  45.000        25
  45.100        24
  45.200        25
  45.300        24
  45.400        26
  45.500        31
  45.600        24
  45.700        32
  45.800        32
  45.900        22
  46.000        21
  46.100        29
  46.200        50
  46.300        46
  46.400        20
  46.500        28
  46.600        21
  46.700        19
  46.800        31
  46.900        28
  47.000        23
  47.100        53
  47.200       112
  47.300       114
  47.400       187
  47.500       182
  47.600       114
  47.700        65
  47.800        47
  47.900        28
  48.000        29
  48.100        21
  48.200        30
  48.300        28
  48.400        24
  48.500        32
  48.600        28
  48.700        21
  48.800        24
  48.900        27
  49.000        12
  49.100        32
  49.200        26
  49.300        16
  49.400        29
  49.500        21
  49.600        22
  49.700        19
  49.800        31
  49.900        19
  50.000        17
  50.100        30
  50.200        19
  50.300        25
  50.400        30
  50.500        26
  50.600        24
  50.700        21
  50.800        17
  50.900        27
  51.000        29
  51.100        30
  51.200        32
  51.300        23
  51.400        28
  51.500        40
  51.600        31
  51.700        51
  51.800        53
  51.900        70
  52.000       139
  52.100       457
  52.200       404
  52.300       265
  52.400       207
  52.500       767
  52.600       686
  52.700       475
  52.800       121
  52.900        72
  53.000        90
  53.100       129
  53.200       249
  53.300      1428
  53.400      1288
  53.500       998
  53.600       576
  53.700       121
  53.800        79
  53.900        43
  54.000        67
  54.100        47
  54.200        43
  54.300        46
  54.400        47
  54.500        28
  54.600        39
  54.700        31
  54.800        42
  54.900        38
  55.000        37
  55.100        39
  55.200        60
  55.300        86
  55.400       112
  55.500       327
  55.600      1162
  55.700       556
  55.800       176
  55.900        59
  56.000        56
  56.100        49
  56.200        39
  56.300        37
  56.400        47
  56.500        38
  56.600        49
  56.700        51
  56.800        84
  56.900       198
  57.000       222
  57.100       158
  57.200       151
  57.300       182
  57.400       645
  57.500      1944
  57.600       954
  57.700       585
  57.800       125
  57.900        59
  58.000        47
  58.100        43
  58.200        42
  58.300        38
  58.400        22
  58.500        33
  58.600        25
  58.700        20
  58.800        20
  58.900        26
  59.000        22
  59.100        25
  59.200        32
  59.300        31
  59.400        31
  59.500        40
  59.600        92
  59.700       144
  59.800        94
  59.900        67
  60.000        29
  60.100        26
  60.200        20
  60.300        20
  60.400        26
  60.500        20
  60.600        24
  60.700        28
  60.800        30
  60.900        38
  61.000        38
  61.100        86
  61.200       100
  61.300       216
  61.400        94
  61.500        98
  61.600        40
  61.700        36
  61.800        34
  61.900        39
  62.000        53
  62.100        37
  62.200        51
  62.300        64
  62.400       116
  62.500       302
  62.600       313
  62.700       262
  62.800       316
  62.900       262
  63.000       158
  63.100        72
  63.200        39
  63.300        46
  63.400        31
  63.500        20
  63.600        24
  63.700        27
  63.800        30
  63.900        22
  64.000        23
  64.100        32
  64.200        27
  64.300        32
  64.400        79
  64.500        29
  64.600        46
  64.700        27
  64.800        19
  64.900        23
  65.000        22
  65.100        20
  65.200        30
  65.300        28
  65.400        21
  65.500        21
  65.600        33
  65.700        28
  65.800        30
  65.900        21
  66.000        28
  66.100        32
  66.200        49
  66.300        75
  66.400       207
  66.500       734
  66.600       320
  66.700       400
  66.800       100
  66.900        47
  67.000        42
  67.100        42
  67.200        40
  67.300        44
  67.400        53
  67.500        57
  67.600       106
  67.700       246
  67.800       231
  67.900       198
  68.000       201
  68.100       408
  68.200      1056
  68.300       420
  68.400       585
  68.500       163
  68.600        82
  68.700        90
  68.800       114
  68.900        65
  69.000        73
  69.100        34
  69.200        33
  69.300        19
  69.400        34
  69.500        21
  69.600        33
  69.700        19
  69.800        32
  69.900        24
  70.000        27
  70.100        29
  70.200        26
  70.300        29
  70.400        43
  70.500        34
  70.600        42
  70.700        24
  70.800        26
  70.900        53
  71.000        53
  71.100        38
  71.200        37
  71.300        21
  71.400        20
  71.500        12
  71.600        20
  71.700        21
  71.800        22
  71.900        16
  72.000        16
  72.100        16
  72.200        12
  72.300        30
  72.400        24
  72.500        17
  72.600        25
  72.700        17
  72.800        22
  72.900        29
  73.000        33
  73.100        38
  73.200        72
  73.300       207
  73.400        84
  73.500       110
  73.600        70
  73.700        39
  73.800        56
  73.900        92
  74.000       552
  74.100        79
  74.200       240
  74.300        90
  74.400        56
  74.500        30
  74.600        29
  74.700        40
  74.800        42
  74.900        62
  75.000        86
  75.100        81
  75.200        90
  75.300        79
  75.400        82
  75.500        62
  75.600        44
  75.700        43
  75.800        40
  75.900        50
  76.000        56
  76.100        77
  76.200        60
  76.300        56
  76.400        28
  76.500        26
  76.600        33
  76.700        53
  76.800       190
  76.900       309
  77.000       116
  77.100       207
  77.200       213
  77.300       118
  77.400        75
  77.500        88
  77.600        29
  77.700        27
  77.800        27
  77.900        22
  78.000        21
  78.100        24
  78.200        28
  78.300        15
  78.400        32
  78.500        33
  78.600        23
  78.700        25
  78.800        34
  78.900        38
  79.000        32
  79.100        29
  79.200        33
  79.300        23
  79.400        19
  79.500        26
  79.600        29
  79.700        28
  79.800        36
  79.900        21
  80.000        32
  80.100        23
  80.200        28
  80.300        43
  80.400        59
  80.500        77
  80.600       141
  80.700       400
  80.800       207
  80.900       216
  81.000       136
  81.100        50
  81.200        42
  81.300        19
  81.400        29
  81.500        25
  81.600        31
  81.700        30
  81.800        23
  81.900        23
  82.000        27
  82.100        24
  82.200        31
  82.300        24
  82.400        32
  82.500        53
  82.600        44
  82.700        50
  82.800        36
  82.900        32
  83.000        32
  83.100        24
  83.200        36
  83.300        21
  83.400        32
  83.500        32
  83.600        27
  83.700        13
  83.800        16
  83.900        22
  84.000        22
  84.100        17
  84.200        32
  84.300        75
  84.400        82
  84.500        53
  84.600        62
  84.700        43
  84.800        23
  84.900        23
  85.000        32
  85.100        24
  85.200        17
  85.300        20
  85.400        22
  85.500        17
  85.600        15
  85.700        19
  85.800        16
  85.900        23
  86.000        21
  86.100        29
  86.200        25
  86.300        65
  86.400        77
  86.500        67
  86.600        70
  86.700        67
  86.800        70
  86.900        34
  87.000        42
  87.100        19
  87.200        22
  87.300        28
  87.400        31
  87.500        38
  87.600        42
  87.700        47
  87.800        59
  87.900        88
  88.000        98
  88.100        60
  88.200        59
  88.300        62
  88.400        33
  88.500        30
  88.600        53
  88.700        88
  88.800       153
  88.900       104
  89.000       196
  89.100       123
  89.200        82
  89.300        98
  89.400        60
  89.500        75
  89.600       176
  89.700        96
  89.800        67
  89.900        84
  90.000        57
  90.100        24
  90.200        23
  90.300        31
  90.400        38
  90.500        29
  90.600        32
  90.700        62
  90.800        38
  90.900        47
  91.000        50
  91.100        82
  91.200       146
  91.300        72
  91.400        67
  91.500       102
  91.600        27
  91.700        37
  91.800        37
  91.900        32
  92.000        26
  92.100        38
  92.200        65
  92.300       125
  92.400        49
  92.500        59
  92.600        73
  92.700        47
  92.800        31
  92.900        42
  93.000        59
  93.100       118
  93.200       302
  93.300       153
  93.400       104
  93.500       166
  93.600        88
  93.700        38
  93.800        43
  93.900        49
  94.000        67
  94.100        62
  94.200        62
  94.300        77
  94.400        88
  94.500        72
  94.600        72
  94.700        60
  94.800        75
  94.900        88
  95.000        98
  95.100       127
  95.200       256
  95.300       207
  95.400       106
  95.500       141
  95.600       153
  95.700        39
  95.800        43
  95.900        25
  96.000        27
  96.100        19
  96.200        24
  96.300        22
  96.400        29
  96.500        13
  96.600        10
  96.700        16
  96.800        10
  96.900        12
  97.000        15
  97.100        16
  97.200        23
  97.300        20
  97.400        16
  97.500        27
  97.600        15
  97.700        10
  97.800        20
  97.900        22
  98.000        16
  98.100        17
  98.200        20
  98.300        36
  98.400        46
  98.500        40
  98.600        34
  98.700        42
  98.800        30
  98.900        21
  99.000        20
  99.100        13
  99.200        16
  99.300        12
  99.400        19
  99.500        15
  99.600        26
  99.700        22
  99.800        29
  99.900        16
 100.000        24
 100.100        32
 100.200        25
 100.300        26
 100.400        50
 100.500        27
 100.600        22
 100.700        36
 100.800        38
 100.900        59
 101.000       127
 101.100       246
 101.200        90
 101.300        60
 101.400       114
 101.500        75
 101.600        26
 101.700        19
 101.800        23
 101.900        17
 102.000        25
 102.100        22
 102.200        39
 102.300        46
 102.400        31
 102.500        19
 102.600        50
 102.700        37
 102.800        34
 102.900        28
 103.000        23
 103.100        30
 103.200        33
 103.300        65
 103.400        39
 103.500        37
 103.600        32
 103.700        51
 103.800        31
 103.900        32
 104.000        37
 104.100        27
 104.200        30
 104.300        22
 104.400        31
 104.500        28
 104.600        33
 104.700        43
 104.800       110
 104.900        72
 105.000        47
 105.100        62
 105.200       108
 105.300        59
 105.400        44
 105.500        43
 105.600        59
 105.700        32
 105.800        32
 105.900        16
 106.000        24
 106.100        23
 106.200        27
 106.300        22
 106.400        13
 106.500        13
 106.600        20
 106.700        22
 106.800        27
 106.900        32
 107.000        17
 107.100        22
 107.200        26
 107.300        30
 107.400        32
 107.500        24
 107.600        42
 107.700        43
 107.800        36
 107.900        36
 108.000        26
 108.100        36
 108.200        23
 108.300        22
 108.400        24
 108.500        22
 108.600        16
 108.700        17
 108.800        24
 108.900        25
 109.000        16
 109.100        13
 109.200        27
 109.300        24
 109.400        19
 109.500        28
 109.600        21
 109.700        22
 109.800        21
 109.900        22
 110.000        30
 110.100        33
 110.200        32
 110.300        43
 110.400        29
 110.500        22
 110.600        31
 110.700        30
 110.800        38
 110.900        47
 111.000        73
 111.100        47
 111.200        37
 111.300        49
 111.400        67
 111.500        44
 111.600        31
 111.700        32
 111.800        34
 111.900        28
 112.000        26
 112.100        23
 112.200        21
 112.300        17
 112.400        16
 112.500        30
 112.600        15
 112.700        20
 112.800        29
 112.900        29
 113.000        31
 113.100        26
 113.200        47
 113.300        44
 113.400        44
 113.500        50
 113.600        29
 113.700        39
 113.800        38
 113.900        53
 114.000        54
 114.100        64
 114.200        50
 114.300        84
 114.400        75
 114.500       148
 114.600        54
 114.700        47
 114.800        44
 114.900        62
 115.000        50
 115.100        31
 115.200        34
 115.300        26
 115.400        31
 115.500        22
 115.600        25
 115.700        43
 115.800        26
 115.900        57
 116.000       104
 116.100       219
 116.200       129
 116.300        65
 116.400        72
 116.500       136
 116.600       184
 116.700       114
 116.800        50
 116.900        38
 117.000        65
 117.100        88
 117.200        56
 117.300        57
 117.400        73
 117.500       108
 117.600       148
 117.700       114
 117.800       148
 117.900       158
 118.000       104
 118.100       100
 118.200        94
 118.300       134
 118.400       112
 118.500        94
 118.600        65
 118.700        70
 118.800       102
 118.900        92
 119.000       104
 119.100        92
 119.200        98
 119.300       116
 119.400       216
 119.500       327
 119.600       357
 119.700       148
 119.800       112
 119.900       136
 120.000       222
 120.100       182
 120.200        86
 120.300        79
 120.400        77
 120.500        88
 120.600        96
 120.700        56
 120.800        57
 120.900        60
 121.000        70
 121.100        59
 121.200        47
 121.300        43
 121.400        40
 121.500        51
 121.600        40
 121.700        33
 121.800        33
 121.900        56
 122.000       100
 122.100        77
 122.200        59
 122.300        38
 122.400        62
 122.500        64
 122.600        67
 122.700        40
 122.800        33
 122.900        36
 123.000        26
 123.100        32
 123.200        28
 123.300        21
 123.400        17
 123.500        23
 123.600        16
 123.700        25
 123.800        24
 123.900        25
 124.000        29
 124.100        28
 124.200        27
 124.300        28
 124.400        23
 124.500        31
 124.600        62
 124.700        38
 124.800        30
 124.900        25
 125.000        23
 125.100        37
 125.200        40
 125.300        26
 125.400        31
 125.500        20
 125.600        27
 125.700        16
 125.800        43
 125.900        22
 126.000        29
 126.100        31
 126.200        29
 126.300        16
 126.400        25
 126.500        31
 126.600        26
 126.700        31
 126.800        22
 126.900        25
 127.000        32
 127.100        40
 127.200        42
 127.300        47
 127.400        67
 127.500        65
 127.600       169
 127.700       265
 127.800       184
 127.900       158
 128.000       262
 128.100       320
 128.200       222
 128.300       169
 128.400       125
 128.500       134
 128.600       146
 128.700       148
 128.800        88
 128.900        72
 129.000        57
 129.100        39
 129.200        38
 129.300        38
 129.400        37
 129.500        51
 129.600        38
 129.700        47
 129.800        72
 129.900       112
 130.000        79
 130.100        27
 130.200        46
 130.300        38
 130.400        50
 130.500        81
 130.600        53
 130.700        46
 130.800        34
 130.900        32
 131.000        50
 131.100        92
 131.200       106
 131.300        49
 131.400        43
 131.500        31
 131.600        47
 131.700        49
 131.800        73
 131.900        39
 132.000        30
 132.100        27
 132.200        25
 132.300        47
 132.400        36
 132.500        36
 132.600        23
 132.700        34
 132.800        40
 132.900        38
 133.000        32
 133.100        39
 133.200        49
 133.300        25
 133.400        46
 133.500        37
 133.600        33
 133.700        33
 133.800        40
 133.900        37
 134.000        36
 134.100        34
 134.200        38
 134.300        46
 134.400        38
 134.500        37
 134.600        39
 134.700        67
 134.800       121
 134.900       153
 135.000       153
 135.100       134
 135.200       146
 135.300       141
 135.400       129
 135.500       100
 135.600       123
 135.700       121
 135.800       127
 135.900       196
 136.000       262
 136.100       353
 136.200       246
 136.300       139
 136.400        88
 136.500        86
 136.600        82
 136.700       121
 136.800       163
 136.900       144
 137.000        77
 137.100        60
 137.200        50
 137.300        49
 137.400        43
 137.500        49
 137.600        79
 137.700        82
 137.800        70
 137.900        59
 138.000        47
 138.100        38
 138.200        46
 138.300        54
 138.400        59
 138.500        50
 138.600        62
 138.700        59
 138.800        36
 138.900        42
 139.000        37
 139.100        30
 139.200        28
 139.300        38
 139.400        42
 139.500        50
 139.600        32
 139.700        24
 139.800        32
 139.900        30
 140.000        32
 140.100        25
 140.200        21
 140.300        34
 140.400        27
 140.500        32
 140.600        32
 140.700        29
 140.800        32
 140.900        36
 141.000        42
 141.100        43
 141.200        26
 141.300        27
 141.400        32
 141.500        28
 141.600        30
 141.700        31
 141.800        33
 141.900        31
 142.000        25
 142.100        32
 142.200        47
 142.300        65
 142.400        70
 142.500        59
 142.600        53
 142.700        47
 142.800        51
 142.900        56
 143.000        54
 143.100        88
 143.200       125
 143.300       136
 143.400       100
 143.500        65
 143.600        59
 143.700        62
 143.800        50
 143.900        51
 144.000        56
 144.100        79
 144.200        62
 144.300        72
 144.400        47
 144.500        59
 144.600        49
 144.700        38
 144.800        67
 144.900        51
 145.000        65
 145.100       114
 145.200       148
 145.300       104
 145.400        72
 145.500        67
 145.600        37
 145.700        47
 145.800        36
 145.900        64
 146.000        62
 146.100        82
 146.200        75
 146.300        60
 146.400        38
 146.500        43
 146.600        37
 146.700        42
 146.800        27
 146.900        23
 147.000        28
 147.100        29
 147.200        34
 147.300        30
 147.400        31
 147.500        31
 147.600        38
 147.700        27
 147.800        29
 147.900        24
 148.000        29
 148.100        42
 148.200        43
 148.300        47
 148.400        38
 148.500        32
 148.600        32
 148.700        38
 148.800        34
 148.900        39
 149.000        56
 149.100        86
 149.200       102
 149.300       112
 149.400        90
 149.500        86
 149.600        59
 149.700        54
 149.800        60
 149.900        79
 150.000       100