File: data/XRD/CPD-1C.PRN
   5.000       169
   5.100       204
   5.200       169
   5.300       174
   5.400       166
   5.500       184
   5.600       158
   5.700       153
   5.800       132
   5.900       148
   6.000       125
   6.100       144
   6.200       141
   6.300       139
   6.400       139
   6.500       146
   6.600       136
   6.700       136
   6.800       129
   6.900       106
   7.000       129
   7.100       104
   7.200       102
   7.300       127
   7.400       112
   7.500       125
   7.600       127
   7.700       106
   7.800        77
   7.900       110
   8.000        81
   8.100       121
   8.200       102
   8.300        96
   8.400        98
   8.500        86
   8.600       102
   8.700        90
   8.800        98
   8.900       102
   9.000       102
   9.100        96
   9.200        86
   9.300        92
   9.400        84
   9.500        72
   9.600        84
   9.700        90
   9.800        96
   9.900        79
  10.000        90
  10.100        75
  10.200        88
  10.300        77
  10.400        81
  10.500        79
  10.600        72
  10.700        84
  10.800        90
  10.900        70
  11.000        75
  11.100        90
  11.200        94
  11.300        68
  11.400        75
  11.500        62
  11.600        90
  11.700        68
  11.800        64
  11.900        68
  12.000        72
  12.100        65
  12.200        84
  12.300        49
  12.400        77
  12.500        68
  12.600        82
  12.700        75
  12.800        72
  12.900        90
  13.000        92
  13.100        75
  13.200        65
  13.300        65
  13.400        70
  13.500        59
  13.600        60
  13.700        64
  13.800        56
  13.900        47
  14.000        59
  14.100        67
  14.200        57
  14.300        67
  14.400        72
  14.500        56
  14.600        59
  14.700        62
  14.800        73
  14.900        59
  15.000        59
  15.100        72
  15.200        54
  15.300        53
  15.400        51
  15.500        62
  15.600        47
  15.700        65
  15.800        77
  15.900        39
  16.000        67
  16.100        56
  16.200        65
  16.300        60
  16.400        62
  16.500        47
  16.600        47
  16.700        31
  16.800        56
  16.900        54
  17.000        62
  17.100        59
  17.200        51
  17.300        53
  17.400        33
  17.500        43
  17.600        53
  17.700        54
  17.800        50
  17.900        50
  18.000        59
  18.100        47
  18.200        53
  18.300        38
  18.400        53
  18.500        59
  18.600        51
  18.700        44
  18.800        51
  18.900        44
  19.000        40
  19.100        47
  19.200        62
  19.300        53
  19.400        50
  19.500        50
  19.600        53
  19.700        62
  19.800        56
  19.900        56
  20.000        47
  20.100        51
  20.200        42
  20.300        39
  20.400        42
  20.500        70
  20.600        54
  20.700        49
  20.800        51
  20.900        46
  21.000        36
  21.100        36
  21.200        43
  21.300        49
  21.400        40
  21.500        54
  21.600        40
  21.700        62
  21.800        50
  21.900        59
  22.000        50
  22.100        47
  22.200        43
  22.300        32
  22.400        43
  22.500        34
  22.600        43
  22.700        50
  22.800        50
  22.900        54
  23.000        46
  23.100        43
  23.200        51
  23.300        46
  23.400        57
  23.500        40
  23.600        42
  23.700        42
  23.800        43
  23.900        54
  24.000        53
  24.100        50
  24.200        42
  24.300        43
  24.400        53
  24.500        37
  24.600        49
  24.700        46
  24.800        50
  24.900        49
  25.000        42
  25.100        44
  25.200        47
  25.300        56
  25.400        67
  25.500       127
  25.600       210
  25.700        84
  25.800        56
  25.900        38
  26.000        39
  26.100        46
  26.200        59
  26.300        44
  26.400        40
  26.500        47
  26.600        42
  26.700        40
  26.800        53
  26.900        40
  27.000        56
  27.100        46
  27.200        46
  27.300        53
  27.400        47
  27.500        43
  27.600        53
  27.700        56
  27.800        56
  27.900        62
  28.000        53
  28.100        72
  28.200       179
  28.300       282
  28.400       118
  28.500        54
  28.600        79
  28.700        62
  28.800        39
  28.900        51
  29.000        40
  29.100        62
  29.200        59
  29.300        75
  29.400        44
  29.500        67
  29.600        49
  29.700        47
  29.800        65
  29.900        60
  30.000        57
  30.100        56
  30.200        56
  30.300        62
  30.400        64
  30.500        62
  30.600        65
  30.700        82
  30.800        82
  30.900       110
  31.000       123
  31.100       129
  31.200       146
  31.300       176
  31.400       268
  31.500       542
  31.600      1576
  31.700      7191
  31.800     13595
  31.900      4422
  32.000       734
  32.100       295
  32.200       198
  32.300       136
  32.400       121
  32.500       106
  32.600       108
  32.700       132
  32.800        86
  32.900        96
  33.000       112
  33.100        90
  33.200        77
  33.300        86
  33.400        70
  33.500        90
  33.600       114
  33.700       102
  33.800       104
  33.900       144
  34.000       161
  34.100       234
  34.200       479
  34.300      1989
  34.400      9292
  34.500      6674
  34.600      1122
  34.700       345
  34.800       210
  34.900       156
  35.000       187
  35.100       306
  35.200       384
  35.300       210
  35.400       161
  35.500       182
  35.600       207
  35.700       292
  35.800       338
  35.900       533
  36.000       918
  36.100      3025
  36.200     14616
  36.300     20620
  36.400      7174
  36.500      1115
  36.600       506
  36.700       292
  36.800       196
  36.900       153
  37.000       141
  37.100       118
  37.200       112
  37.300       112
  37.400       102
  37.500        79
  37.600        82
  37.700       112
  37.800       179
  37.900        94
  38.000        82
  38.100        65
  38.200        56
  38.300        56
  38.400        60
  38.500        62
  38.600        43
  38.700        47
  38.800        56
  38.900        56
  39.000        65
  39.100        43
  39.200        54
  39.300        62
  39.400        56
  39.500        49
  39.600        43
  39.700        49
  39.800        57
  39.900        47
  40.000        53
  40.100        51
  40.200        49
  40.300        50
  40.400        53
  40.500        56
  40.600        32
  40.700        62
  40.800        47
  40.900        43
  41.000        39
  41.100        44
  41.200        44
  41.300        56
  41.400        67
  41.500        56
  41.600        47
  41.700        37
  41.800        47
  41.900        50
  42.000        43
  42.100        44
  42.200        53
  42.300        59
  42.400        47
  42.500        49
  42.600        57
  42.700        38
  42.800        39
  42.900        57
  43.000        50
  43.100        39
  43.200        73
  43.300       196
  43.400       265
  43.500       148
  43.600        53
  43.700        46
  43.800        49
  43.900        49
  44.000        40
  44.100        67
  44.200        42
  44.300        46
  44.400        56
  44.500        44
  44.600        56
  44.700        46
  44.800        54
  44.900        47
  45.000        32
  45.100        50
  45.200        51
  45.300        54
  45.400        47
  45.500        59
  45.600        62
  45.700        53
  45.800        47
  45.900        56
  46.000        53
  46.100        43
  46.200        70
  46.300        67
  46.400        72
  46.500        57
  46.600        70
  46.700        67
  46.800        98
  46.900       134
  47.000       342
  47.100       262
  47.200       216
  47.300       306
  47.400       823
  47.500      3576
  47.600      3806
  47.700      2070
  47.800       388
  47.900       176
  48.000       118
  48.100        82
  48.200        81
  48.300        86
  48.400        75
  48.500        53
  48.600        62
  48.700        57
  48.800        67
  48.900        50
  49.000        54
  49.100        50
  49.200        53
  49.300        54
  49.400        50
  49.500        56
  49.600        37
  49.700        49
  49.800        32
  49.900        47
  50.000        56
  50.100        50
  50.200        54
  50.300        50
  50.400        50
  50.500        43
  50.600        57
  50.700        59
  50.800        59
  50.900        49
  51.000        60
  51.100        46
  51.200        47
  51.300        46
  51.400        49
  51.500        59
  51.600        50
  51.700        53
  51.800        59
  51.900        53
  52.000        47
  52.100        49
  52.200        59
  52.300        62
  52.400        68
  52.500       129
  52.600       121
  52.700       112
  52.800        67
  52.900        53
  53.000        62
  53.100        50
  53.200        67
  53.300        51
  53.400        47
  53.500        54
  53.600        46
  53.700        47
  53.800        53
  53.900        68
  54.000        47
  54.100        56
  54.200        70
  54.300        56
  54.400        47
  54.500        53
  54.600        65
  54.700        51
  54.800        60
  54.900        56
  55.000        75
  55.100        59
  55.200        57
  55.300        60
  55.400        82
  55.500        77
  55.600        94
  55.700       148
  55.800       141
  55.900       127
  56.000       121
  56.100       110
  56.200       176
  56.300       324
  56.400       585
  56.500      2106
  56.600      7744
  56.700      3733
  56.800      2652
  56.900       470
  57.000       231
  57.100       174
  57.200       121
  57.300       132
  57.400       163
  57.500       299
  57.600       179
  57.700       169
  57.800        81
  57.900        77
  58.000        64
  58.100        56
  58.200        77
  58.300        72
  58.400        67
  58.500        53
  58.600        54
  58.700        59
  58.800        62
  58.900        56
  59.000        60
  59.100        64
  59.200        70
  59.300        57
  59.400        67
  59.500        59
  59.600        62
  59.700        65
  59.800        64
  59.900        77
  60.000        62
  60.100        68
  60.200        62
  60.300        72
  60.400        54
  60.500        56
  60.600        50
  60.700        60
  60.800        77
  60.900        65
  61.000        59
  61.100        65
  61.200        86
  61.300        84
  61.400       104
  61.500        75
  61.600        68
  61.700        92
  61.800        90
  61.900        75
  62.000       112
  62.100        94
  62.200       108
  62.300       106
  62.400       144
  62.500       231
  62.600       331
  62.700       789
  62.800      3612
  62.900      5387
  63.000      2937
  63.100      1806
  63.200       361
  63.300       198
  63.400       125
  63.500        98
  63.600       110
  63.700        94
  63.800       102
  63.900        79
  64.000        86
  64.100        75
  64.200        79
  64.300        65
  64.400        67
  64.500        75
  64.600        67
  64.700        64
  64.800        77
  64.900        53
  65.000        53
  65.100        62
  65.200        75
  65.300        60
  65.400        73
  65.500        67
  65.600        70
  65.700        77
  65.800        79
  65.900        68
  66.000        90
  66.100       108
  66.200       161
  66.300       492
  66.400      1095
  66.500       556
  66.600       529
  66.700       196
  66.800       118
  66.900        96
  67.000        96
  67.100        82
  67.200        90
  67.300       100
  67.400       110
  67.500       148
  67.600       225
  67.700       320
  67.800       817
  67.900      3375
  68.000      4316
  68.100      2294
  68.200      1953
  68.300       470
  68.400       292
  68.500       198
  68.600       146
  68.700       190
  68.800       207
  68.900       278
  69.000       882
  69.100      2777
  69.200      1069
  69.300      1398
  69.400       364
  69.500       141
  69.600       106
  69.700        72
  69.800        57
  69.900        73
  70.000        72
  70.100        77
  70.200        67
  70.300        67
  70.400        57
  70.500        65
  70.600        65
  70.700        72
  70.800        54
  70.900        59
  71.000        56
  71.100        56
  71.200        59
  71.300        53
  71.400        57
  71.500        56
  71.600        43
  71.700        46
  71.800        49
  71.900        44
  72.000        47
  72.100        62
  72.200        47
  72.300        70
  72.400        73
  72.500       210
  72.600       466
  72.700       182
  72.800       246
  72.900        79
  73.000        67
  73.100        47
  73.200        38
  73.300        33
  73.400        43
  73.500        49
  73.600        60
  73.700        43
  73.800        49
  73.900        43
  74.000        53
  74.100        43
  74.200        51
  74.300        43
  74.400        51
  74.500        43
  74.600        42
  74.700        53
  74.800        43
  74.900        39
  75.000        42
  75.100        49
  75.200        43
  75.300        42
  75.400        42
  75.500        42
  75.600        43
  75.700        51
  75.800        57
  75.900        62
  76.000        44
  76.100        59
  76.200        40
  76.300        50
  76.400        59
  76.500        53
  76.600        67
  76.700        92
  76.800       139
  76.900       475
  77.000       823
  77.100       306
  77.200       484
  77.300       161
  77.400        88
  77.500        65
  77.600        67
  77.700        47
  77.800        36
  77.900        39
  78.000        51
  78.100        50
  78.200        53
  78.300        54
  78.400        50
  78.500        47
  78.600        43
  78.700        42
  78.800        54
  78.900        56
  79.000        38
  79.100        42
  79.200        39
  79.300        56
  79.400        42
  79.500        42
  79.600        44
  79.700        39
  79.800        44
  79.900        49
  80.000        49
  80.100        50
  80.200        36
  80.300        49
  80.400        46
  80.500        37
  80.600        47
  80.700        50
  80.800        50
  80.900        47
  81.000        65
  81.100        60
  81.200        65
  81.300       182
  81.400       466
  81.500       201
  81.600       198
  81.700       158
  81.800        56
  81.900        47
  82.000        50
  82.100        43
  82.200        38
  82.300        49
  82.400        46
  82.500        42
  82.600        38
  82.700        37
  82.800        47
  82.900        42
  83.000        46
  83.100        43
  83.200        50
  83.300        40
  83.400        39
  83.500        38
  83.600        50
  83.700        38
  83.800        43
  83.900        43
  84.000        47
  84.100        44
  84.200        47
  84.300        36
  84.400        50
  84.500        43
  84.600        43
  84.700        38
  84.800        43
  84.900        51
  85.000        40
  85.100        43
  85.200        50
  85.300        38
  85.400        43
  85.500        44
  85.600        29
  85.700        37
  85.800        38
  85.900        43
  86.000        39
  86.100        47
  86.200        39
  86.300        49
  86.400        62
  86.500        59
  86.600        38
  86.700        47
  86.800        40
  86.900        53
  87.000        50
  87.100        39
  87.200        67
  87.300        75
  87.400        90
  87.500        64
  87.600        72
  87.700        59
  87.800        59
  87.900        44
  88.000        62
  88.100        53
  88.200        43
  88.300        51
  88.400        75
  88.500        53
  88.600        56
  88.700        43
  88.800        59
  88.900        59
  89.000        72
  89.100        77
  89.200        88
  89.300       110
  89.400       153
  89.500       436
  89.600      1552
  89.700       936
  89.800       466
  89.900       846
  90.000       372
  90.100       144
  90.200       106
  90.300        67
  90.400        57
  90.500        50
  90.600        60
  90.700        56
  90.800        51
  90.900        72
  91.000        62
  91.100        50
  91.200        79
  91.300        65
  91.400        53
  91.500        54
  91.600        53
  91.700        44
  91.800        62
  91.900        53
  92.000        68
  92.100        47
  92.200        54
  92.300        51
  92.400        72
  92.500        68
  92.600       104
  92.700       268
  92.800       625
  92.900       299
  93.000       176
  93.100       353
  93.200       156
  93.300        68
  93.400        67
  93.500        59
  93.600        65
  93.700        59
  93.800        50
  93.900        54
  94.000        56
  94.100        59
  94.200        84
  94.300        72
  94.400        65
  94.500        57
  94.600        62
  94.700        88
  94.800        88
  94.900       102
  95.000       132
  95.100       198
  95.200       595
  95.300      1738
  95.400       876
  95.500       412
  95.600       817
  95.700       600
  95.800       174
  95.900       125
  96.000        88
  96.100        79
  96.200        68
  96.300        60
  96.400        68
  96.500        57
  96.600        50
  96.700        59
  96.800        65
  96.900        53
  97.000        62
  97.100        62
  97.200        53
  97.300        72
  97.400        56
  97.500        50
  97.600        62
  97.700        43
  97.800        57
  97.900        62
  98.000        59
  98.100        64
  98.200        79
  98.300        90
  98.400       112
  98.500       234
  98.600       846
  98.700       610
  98.800       249
  98.900       349
  99.000       441
  99.100       129
  99.200        92
  99.300        68
  99.400        65
  99.500        57
  99.600        62
  99.700        59
  99.800        62
  99.900        59
 100.000        50
 100.100        54
 100.200        50
 100.300        56
 100.400        62
 100.500        53
 100.600        46
 100.700        57
 100.800        59
 100.900        59
 101.000        56
 101.100        73
 101.200        70
 101.300        60
 101.400        70
 101.500        57
 101.600        62
 101.700        59
 101.800        57
 101.900        62
 102.000        53
 102.100        50
 102.200        57
 102.300        60
 102.400        75
 102.500        65
 102.600        70
 102.700       100
 102.800       193
 102.900       510
 103.000       571
 103.100       213
 103.200       204
 103.300       361
 103.400       234
 103.500       125
 103.600       104
 103.700        79
 103.800       100
 103.900       132
 104.000       265
 104.100       912
 104.200       936
 104.300       309
 104.400       289
 104.500       566
 104.600       327
 104.700       161
 104.800       121
 104.900        77
 105.000        64
 105.100        68
 105.200        72
 105.300        49
 105.400        56
 105.500        53
 105.600        67
 105.700        67
 105.800        70
 105.900        59
 106.000        56
 106.100        84
 106.200        64
 106.300        50
 106.400        49
 106.500        50
 106.600        60
 106.700        50
 106.800        51
 106.900        67
 107.000        56
 107.100        72
 107.200        51
 107.300        92
 107.400       169
 107.500       216
 107.600       112
 107.700        94
 107.800       123
 107.900       132
 108.000        54
 108.100        43
 108.200        56
 108.300        62
 108.400        62
 108.500        59
 108.600        46
 108.700        53
 108.800        53
 108.900        56
 109.000        56
 109.100        56
 109.200        57
 109.300        53
 109.400        65
 109.500        62
 109.600        59
 109.700        64
 109.800        62
 109.900        65
 110.000        88
 110.100       110
 110.200       156
 110.300       353
 110.400       795
 110.500       392
 110.600       182
 110.700       234
 110.800       428
 110.900       252
 111.000       134
 111.100        77
 111.200        73
 111.300        59
 111.400        65
 111.500        62
 111.600        53
 111.700        65
 111.800        53
 111.900        53
 112.000        50
 112.100        56
 112.200        50
 112.300        50
 112.400        50
 112.500        60
 112.600        72
 112.700        53
 112.800        53
 112.900        50
 113.000        77
 113.100        68
 113.200        62
 113.300        70
 113.400        72
 113.500        67
 113.600        60
 113.700        59
 113.800        43
 113.900        59
 114.000        64
 114.100        65
 114.200        68
 114.300        53
 114.400        65
 114.500        53
 114.600        60
 114.700        57
 114.800        62
 114.900        72
 115.000        62
 115.100        62
 115.200        72
 115.300        73
 115.400        77
 115.500        90
 115.600        82
 115.700        90
 115.800       100
 115.900       132
 116.000       187
 116.100       345
 116.200       858
 116.300      1866
 116.400       900
 116.500       368
 116.600       368
 116.700       718
 116.800       812
 116.900       306
 117.000       134
 117.100       110
 117.200       116
 117.300        77
 117.400        68
 117.500        54
 117.600        60
 117.700        59
 117.800        67
 117.900        67
 118.000        62
 118.100        60
 118.200        67
 118.300        67
 118.400        68
 118.500        56
 118.600        42
 118.700        65
 118.800        54
 118.900        50
 119.000        56
 119.100        54
 119.200        51
 119.300        59
 119.400        46
 119.500        57
 119.600        73
 119.700        65
 119.800        59
 119.900        67
 120.000        51
 120.100        67
 120.200        59
 120.300        46
 120.400        59
 120.500        47
 120.600        60
 120.700        62
 120.800        82
 120.900        79
 121.000        67
 121.100        84
 121.200        88
 121.300       104
 121.400       219
 121.500       566
 121.600      1049
 121.700       492
 121.800       222
 121.900       187
 122.000       327
 122.100       533
 122.200       342
 122.300       148
 122.400       102
 122.500        70
 122.600        72
 122.700        75
 122.800        50
 122.900        60
 123.000        67
 123.100        53
 123.200        56
 123.300        59
 123.400        62
 123.500        40
 123.600        64
 123.700        56
 123.800        51
 123.900        50
 124.000        53
 124.100        50
 124.200        47
 124.300        62
 124.400        65
 124.500        53
 124.600        53
 124.700        56
 124.800        67
 124.900        56
 125.000        90
 125.100       127
 125.200       179
 125.300       104
 125.400        67
 125.500        67
 125.600        70
 125.700        92
 125.800       100
 125.900        72
 126.000        70
 126.100        72
 126.200        65
 126.300        70
 126.400        47
 126.500        47
 126.600        62
 126.700        47
 126.800        51
 126.900        60
 127.000        56
 127.100        43
 127.200        65
 127.300        51
 127.400        65
 127.500        57
 127.600        72
 127.700        81
 127.800        81
 127.900        65
 128.000        64
 128.100        59
 128.200        56
 128.300        50
 128.400        47
 128.500        54
 128.600        50
 128.700        54
 128.800        51
 128.900        75
 129.000        40
 129.100        57
 129.200        53
 129.300        62
 129.400        64
 129.500        54
 129.600        53
 129.700        42
 129.800        62
 129.900        65
 130.000        59
 130.100        54
 130.200        62
 130.300        47
 130.400        59
 130.500        44
 130.600        65
 130.700        73
 130.800        49
 130.900        65
 131.000        59
 131.100        70
 131.200        79
 131.300        46
 131.400        53
 131.500        59
 131.600        60
 131.700        67
 131.800        70
 131.900        64
 132.000        56
 132.100        81
 132.200        50
 132.300        65
 132.400        56
 132.500        59
 132.600        59
 132.700        60
 132.800        72
 132.900        60
 133.000        70
 133.100        72
 133.200        62
 133.300        68
 133.400        62
 133.500        84
 133.600        96
 133.700       148
 133.800       285
 133.900       686
 134.000       823
 134.100       449
 134.200       187
 134.300       166
 134.400       148
 134.500       228
 134.600       384
 134.700       357
 134.800       182
 134.900       118
 135.000       102
 135.100        88
 135.200        70
 135.300        84
 135.400        86
 135.500        72
 135.600        65
 135.700        67
 135.800        62
 135.900        67
 136.000        86
 136.100       108
 136.200        94
 136.300        90
 136.400        92
 136.500       196
 136.600       231
 136.700       158
 136.800       112
 136.900        88
 137.000        82
 137.100        94
 137.200       118
 137.300       156
 137.400       125
 137.500        82
 137.600        73
 137.700        65
 137.800        62
 137.900        67
 138.000        65
 138.100        77
 138.200        81
 138.300       104
 138.400       141
 138.500       292
 138.600       309
 138.700       171
 138.800       129
 138.900        86
 139.000        94
 139.100        96
 139.200       116
 139.300       182
 139.400       153
 139.500       121
 139.600        68
 139.700        75
 139.800        72
 139.900        59
 140.000        47
 140.100        65
 140.200        62
 140.300        56
 140.400        67
 140.500        59
 140.600        75
 140.700        60
 140.800        54
 140.900        59
 141.000        65
 141.100        51
 141.200        65
 141.300        72
 141.400        77
 141.500        67
 141.600        53
 141.700        77
 141.800        72
 141.900        62
 142.000        72
 142.100        68
 142.200        86
 142.300        75
 142.400        73
 142.500       100
 142.600        96
 142.700       166
 142.800       262
 142.900       479
 143.000       660
 143.100       396
 143.200       219
 143.300       144
 143.400       112
 143.500       110
 143.600       121
 143.700       196
 143.800       313
 143.900       295
 144.000       198
 144.100       116
 144.200        92
 144.300        79
 144.400        72
 144.500        75
 144.600        96
 144.700        62
 144.800        72
 144.900        72
 145.000        64
 145.100        70
 145.200        75
 145.300        73
 145.400        65
 145.500        72
 145.600        82
 145.700        65
 145.800        59
 145.900        59
 146.000        79
 146.100        62
 146.200        60
 146.300        59
 146.400        79
 146.500        79
 146.600        68
 146.700        65
 146.800        59
 146.900        62
 147.000        62
 147.100        62
 147.200        59
 147.300        64
 147.400        60
 147.500        49
 147.600        67
 147.700        64
 147.800        84
 147.900        67
 148.000        62
 148.100        77
 148.200        43
 148.300        47
 148.400        67
 148.500        53
 148.600        56
 148.700        64
 148.800        57
 148.900        65
 149.000        67
 149.100        72
 149.200        56
 149.300        68
 149.400        62
 149.500        67
 149.600        67
 149.700        43
 149.800        79
 149.900        75
 150.000        79