File: data/XRD/CPD-1G.PRN
   5.000       174
   5.100       151
   5.200       187
   5.300       148
   5.400       144
   5.500       146
   5.600       136
   5.700       166
   5.800       132
   5.900       125
   6.000       118
   6.100       148
   6.200       134
   6.300       132
   6.400       116
   6.500       118
   6.600       110
   6.700       123
   6.800       108
   6.900        92
   7.000       104
   7.100       106
   7.200       114
   7.300       104
   7.400       102
   7.500        70
   7.600        94
   7.700       100
   7.800       108
   7.900        96
   8.000        86
   8.100        86
   8.200        84
   8.300        96
   8.400        77
   8.500        92
   8.600        72
   8.700        77
   8.800       108
   8.900        90
   9.000       104
   9.100        86
   9.200        79
   9.300        88
   9.400        84
   9.500        56
   9.600        84
   9.700        72
   9.800        72
   9.900        82
  10.000        75
  10.100        70
  10.200        62
  10.300        75
  10.400        68
  10.500        70
  10.600        57
  10.700        64
  10.800        79
  10.900        60
  11.000        72
  11.100        59
  11.200        72
  11.300        72
  11.400        77
  11.500        81
  11.600        62
  11.700        46
  11.800        59
  11.900        70
  12.000        53
  12.100        67
  12.200        51
  12.300        43
  12.400        75
  12.500        47
  12.600        62
  12.700        60
  12.800        50
  12.900        65
  13.000        65
  13.100        67
  13.200        59
  13.300        43
  13.400        59
  13.500        53
  13.600        50
  13.700        53
  13.800        34
  13.900        53
  14.000        53
  14.100        56
  14.200        49
  14.300        60
  14.400        56
  14.500        47
  14.600        37
  14.700        43
  14.800        62
  14.900        43
  15.000        51
  15.100        49
  15.200        47
  15.300        46
  15.400        47
  15.500        53
  15.600        46
  15.700        38
  15.800        43
  15.900        39
  16.000        39
  16.100        46
  16.200        43
  16.300        32
  16.400        44
  16.500        38
  16.600        50
  16.700        38
  16.800        33
  16.900        33
  17.000        54
  17.100        53
  17.200        43
  17.300        56
  17.400        34
  17.500        47
  17.600        38
  17.700        36
  17.800        50
  17.900        47
  18.000        43
  18.100        32
  18.200        40
  18.300        43
  18.400        40
  18.500        34
  18.600        54
  18.700        40
  18.800        43
  18.900        38
  19.000        29
  19.100        38
  19.200        27
  19.300        36
  19.400        27
  19.500        43
  19.600        30
  19.700        31
  19.800        31
  19.900        46
  20.000        32
  20.100        28
  20.200        32
  20.300        31
  20.400        31
  20.500        44
  20.600        47
  20.700        50
  20.800        37
  20.900        34
  21.000        38
  21.100        44
  21.200        24
  21.300        38
  21.400        42
  21.500        33
  21.600        23
  21.700        42
  21.800        36
  21.900        34
  22.000        31
  22.100        28
  22.200        33
  22.300        32
  22.400        27
  22.500        32
  22.600        32
  22.700        33
  22.800        27
  22.900        32
  23.000        27
  23.100        26
  23.200        24
  23.300        26
  23.400        32
  23.500        27
  23.600        32
  23.700        29
  23.800        37
  23.900        20
  24.000        33
  24.100        28
  24.200        33
  24.300        36
  24.400        29
  24.500        30
  24.600        39
  24.700        28
  24.800        36
  24.900        34
  25.000        27
  25.100        54
  25.200        47
  25.300        57
  25.400       129
  25.500       384
  25.600       876
  25.700       302
  25.800        64
  25.900        50
  26.000        38
  26.100        33
  26.200        43
  26.300        38
  26.400        40
  26.500        28
  26.600        32
  26.700        31
  26.800        26
  26.900        32
  27.000        34
  27.100        46
  27.200        36
  27.300        43
  27.400        32
  27.500        37
  27.600        44
  27.700        59
  27.800        73
  27.900       106
  28.000       166
  28.100       519
  28.200      2381
  28.300      5387
  28.400      1288
  28.500       196
  28.600       104
  28.700        88
  28.800        56
  28.900        50
  29.000        38
  29.100        33
  29.200        59
  29.300        26
  29.400        34
  29.500        37
  29.600        25
  29.700        34
  29.800        32
  29.900        36
  30.000        31
  30.100        38
  30.200        37
  30.300        38
  30.400        36
  30.500        37
  30.600        33
  30.700        38
  30.800        44
  30.900        46
  31.000        38
  31.100        49
  31.200        59
  31.300        73
  31.400       102
  31.500       144
  31.600       428
  31.700      1927
  31.800      4290
  31.900      1406
  32.000       225
  32.100       114
  32.200        60
  32.300        43
  32.400        51
  32.500        43
  32.600        53
  32.700        44
  32.800        56
  32.900        43
  33.000        42
  33.100        38
  33.200        38
  33.300        44
  33.400        43
  33.500        53
  33.600        43
  33.700        51
  33.800        43
  33.900        57
  34.000        59
  34.100        84
  34.200       161
  34.300       552
  34.400      2840
  34.500      2256
  34.600       364
  34.700       153
  34.800       106
  34.900        98
  35.000       201
  35.100       778
  35.200      1162
  35.300       388
  35.400       116
  35.500        94
  35.600        88
  35.700        92
  35.800       123
  35.900       166
  36.000       278
  36.100       795
  36.200      4083
  36.300      6241
  36.400      2294
  36.500       361
  36.600       144
  36.700       114
  36.800        75
  36.900        50
  37.000        51
  37.100        51
  37.200        44
  37.300        53
  37.400        44
  37.500        53
  37.600        79
  37.700       216
  37.800       533
  37.900       268
  38.000        72
  38.100        47
  38.200        34
  38.300        47
  38.400        37
  38.500        28
  38.600        31
  38.700        32
  38.800        33
  38.900        40
  39.000        39
  39.100        36
  39.200        34
  39.300        31
  39.400        22
  39.500        32
  39.600        27
  39.700        33
  39.800        32
  39.900        25
  40.000        28
  40.100        28
  40.200        31
  40.300        38
  40.400        29
  40.500        33
  40.600        37
  40.700        43
  40.800        28
  40.900        20
  41.000        42
  41.100        34
  41.200        29
  41.300        28
  41.400        37
  41.500        30
  41.600        34
  41.700        50
  41.800        25
  41.900        37
  42.000        27
  42.100        34
  42.200        36
  42.300        49
  42.400        34
  42.500        38
  42.600        43
  42.700        39
  42.800        34
  42.900        39
  43.000        51
  43.100        65
  43.200       148
  43.300       789
  43.400      1197
  43.500       615
  43.600       121
  43.700        62
  43.800        43
  43.900        34
  44.000        33
  44.100        38
  44.200        25
  44.300        33
  44.400        32
  44.500        29
  44.600        36
  44.700        26
  44.800        28
  44.900        38
  45.000        29
  45.100        31
  45.200        37
  45.300        32
  45.400        38
  45.500        28
  45.600        46
  45.700        30
  45.800        38
  45.900        42
  46.000        49
  46.100        53
  46.200        75
  46.300        62
  46.400        60
  46.500        64
  46.600       110
  46.700       151
  46.800       345
  46.900      1274
  47.000      5155
  47.100      3036
  47.200      1108
  47.300       285
  47.400       306
  47.500      1062
  47.600      1267
  47.700       702
  47.800       163
  47.900        88
  48.000        59
  48.100        56
  48.200        50
  48.300        29
  48.400        31
  48.500        32
  48.600        27
  48.700        21
  48.800        31
  48.900        38
  49.000        38
  49.100        27
  49.200        30
  49.300        29
  49.400        26
  49.500        30
  49.600        30
  49.700        30
  49.800        32
  49.900        31
  50.000        33
  50.100        32
  50.200        32
  50.300        24
  50.400        34
  50.500        16
  50.600        37
  50.700        31
  50.800        32
  50.900        21
  51.000        27
  51.100        31
  51.200        30
  51.300        30
  51.400        27
  51.500        32
  51.600        32
  51.700        26
  51.800        33
  51.900        29
  52.000        27
  52.100        23
  52.200        47
  52.300        40
  52.400       118
  52.500       357
  52.600       524
  52.700       334
  52.800        98
  52.900        39
  53.000        46
  53.100        34
  53.200        32
  53.300        32
  53.400        36
  53.500        33
  53.600        23
  53.700        31
  53.800        34
  53.900        23
  54.000        25
  54.100        40
  54.200        31
  54.300        32
  54.400        38
  54.500        42
  54.600        38
  54.700        43
  54.800        34
  54.900        42
  55.000        34
  55.100        40
  55.200        53
  55.300        56
  55.400        67
  55.500       100
  55.600       184
  55.700       912
  55.800      1346
  55.900       930
  56.000       302
  56.100        94
  56.200        84
  56.300       106
  56.400       153
  56.500       556
  56.600      2323
  56.700      1135
  56.800       841
  56.900       163
  57.000       100
  57.100        90
  57.200        75
  57.300        96
  57.400       357
  57.500      1204
  57.600       635
  57.700       506
  57.800       114
  57.900        67
  58.000        49
  58.100        34
  58.200        39
  58.300        50
  58.400        36
  58.500        53
  58.600        39
  58.700        36
  58.800        42
  58.900        43
  59.000        42
  59.100        36
  59.200        32
  59.300        33
  59.400        36
  59.500        38
  59.600        30
  59.700        49
  59.800        50
  59.900        47
  60.000        46
  60.100        40
  60.200        27
  60.300        26
  60.400        24
  60.500        32
  60.600        32
  60.700        40
  60.800        30
  60.900        38
  61.000        39
  61.100        67
  61.200        81
  61.300       121
  61.400        92
  61.500        77
  61.600        30
  61.700        32
  61.800        42
  61.900        47
  62.000        49
  62.100        39
  62.200        50
  62.300        46
  62.400        50
  62.500        81
  62.600       112
  62.700       176
  62.800      1049
  62.900      1738
  63.000       912
  63.100       576
  63.200       129
  63.300        59
  63.400        36
  63.500        39
  63.600        38
  63.700        36
  63.800        21
  63.900        42
  64.000        38
  64.100        43
  64.200        32
  64.300        32
  64.400        36
  64.500        33
  64.600        28
  64.700        34
  64.800        37
  64.900        38
  65.000        46
  65.100        29
  65.200        43
  65.300        30
  65.400        43
  65.500        25
  65.600        30
  65.700        28
  65.800        43
  65.900        39
  66.000        53
  66.100        56
  66.200        70
  66.300       158
  66.400       441
  66.500       501
  66.600       345
  66.700       285
  66.800       108
  66.900        62
  67.000        44
  67.100        46
  67.200        50
  67.300        43
  67.400        47
  67.500        47
  67.600        79
  67.700        92
  67.800       234
  67.900       954
  68.000      1428
  68.100       829
  68.200      1156
  68.300       441
  68.400       453
  68.500       256
  68.600       384
  68.700       510
  68.800       278
  68.900       313
  69.000       309
  69.100       817
  69.200       338
  69.300       432
  69.400       139
  69.500        53
  69.600        50
  69.700        38
  69.800        46
  69.900        36
  70.000        36
  70.100        32
  70.200        31
  70.300        34
  70.400        32
  70.500        30
  70.600        38
  70.700        36
  70.800        32
  70.900        36
  71.000        29
  71.100        28
  71.200        27
  71.300        29
  71.400        24
  71.500        37
  71.600        26
  71.700        25
  71.800        23
  71.900        32
  72.000        31
  72.100        23
  72.200        42
  72.300        24
  72.400        32
  72.500        62
  72.600       158
  72.700        53
  72.800        90
  72.900        44
  73.000        34
  73.100        22
  73.200        37
  73.300        26
  73.400        21
  73.500        28
  73.600        20
  73.700        23
  73.800        20
  73.900        26
  74.000        25
  74.100        32
  74.200        24
  74.300        51
  74.400        43
  74.500        38
  74.600        26
  74.700        27
  74.800        22
  74.900        40
  75.000        30
  75.100        37
  75.200        26
  75.300        37
  75.400        43
  75.500        39
  75.600        59
  75.700       127
  75.800       380
  75.900       289
  76.000       161
  76.100       228
  76.200        65
  76.300        46
  76.400        42
  76.500        34
  76.600        44
  76.700        62
  76.800       118
  76.900       327
  77.000       331
  77.100       216
  77.200       256
  77.300       134
  77.400        70
  77.500        70
  77.600        42
  77.700        37
  77.800        29
  77.900        29
  78.000        32
  78.100        39
  78.200        62
  78.300        43
  78.400        51
  78.500        32
  78.600        42
  78.700        31
  78.800        28
  78.900        30
  79.000        32
  79.100        29
  79.200        25
  79.300        19
  79.400        31
  79.500        30
  79.600        21
  79.700        25
  79.800        23
  79.900        24
  80.000        21
  80.100        32
  80.200        30
  80.300        30
  80.400        23
  80.500        36
  80.600        50
  80.700        79
  80.800        56
  80.900        47
  81.000        39
  81.100        32
  81.200        29
  81.300        62
  81.400       158
  81.500        51
  81.600        86
  81.700        59
  81.800        30
  81.900        34
  82.000        17
  82.100        32
  82.200        24
  82.300        15
  82.400        19
  82.500        25
  82.600        32
  82.700        22
  82.800        21
  82.900        15
  83.000        31
  83.100        25
  83.200        32
  83.300        40
  83.400        28
  83.500        30
  83.600        20
  83.700        26
  83.800        28
  83.900        25
  84.000        34
  84.100        27
  84.200        38
  84.300        56
  84.400        62
  84.500        37
  84.600        50
  84.700        28
  84.800        24
  84.900        24
  85.000        28
  85.100        39
  85.200        23
  85.300        23
  85.400        21
  85.500        24
  85.600        27
  85.700        20
  85.800        30
  85.900        27
  86.000        28
  86.100        32
  86.200        38
  86.300        65
  86.400        73
  86.500        64
  86.600        70
  86.700        56
  86.800        54
  86.900        56
  87.000        51
  87.100        57
  87.200       156
  87.300       392
  87.400       789
  87.500       295
  87.600       331
  87.700       349
  87.800       106
  87.900        72
  88.000        56
  88.100        43
  88.200        25
  88.300        36
  88.400        37
  88.500        36
  88.600        28
  88.700        32
  88.800        38
  88.900        59
  89.000       108
  89.100        75
  89.200        82
  89.300        79
  89.400        73
  89.500       104
  89.600       484
  89.700       357
  89.800       134
  89.900       268
  90.000       148
  90.100        64
  90.200        47
  90.300        32
  90.400        33
  90.500        27
  90.600        47
  90.700        43
  90.800        57
  90.900        30
  91.000        38
  91.100        59
  91.200       118
  91.300        59
  91.400        56
  91.500        84
  91.600        40
  91.700        39
  91.800        29
  91.900        26
  92.000        28
  92.100        36
  92.200        32
  92.300        29
  92.400        31
  92.500        28
  92.600        44
  92.700        64
  92.800       201
  92.900       118
  93.000        67
  93.100       100
  93.200        77
  93.300        38
  93.400        36
  93.500        31
  93.600        28
  93.700        30
  93.800        43
  93.900        37
  94.000        51
  94.100       127
  94.200       313
  94.300       196
  94.400       134
  94.500       169
  94.600        94
  94.700        62
  94.800        47
  94.900        49
  95.000        47
  95.100        88
  95.200       275
  95.300       645
  95.400       357
  95.500       182
  95.600       353
  95.700       193
  95.800        56
  95.900        57
  96.000        43
  96.100        39
  96.200        34
  96.300        32
  96.400        37
  96.500        28
  96.600        31
  96.700        31
  96.800        21
  96.900        32
  97.000        25
  97.100        23
  97.200        19
  97.300        25
  97.400        30
  97.500        32
  97.600        25
  97.700        37
  97.800        30
  97.900        39
  98.000        25
  98.100        29
  98.200        43
  98.300        47
  98.400        77
  98.500       106
  98.600       282
  98.700       222
  98.800        96
  98.900        98
  99.000       136
  99.100        70
  99.200        46
  99.300        33
  99.400        36
  99.500        26
  99.600        21
  99.700        32
  99.800        22
  99.900        21
 100.000        29
 100.100        27
 100.200        27
 100.300        28
 100.400        30
 100.500        38
 100.600        29
 100.700        31
 100.800        40
 100.900        49
 101.000        70
 101.100       163
 101.200        84
 101.300        47
 101.400        84
 101.500        72
 101.600        49
 101.700        31
 101.800        20
 101.900        28
 102.000        20
 102.100        29
 102.200        29
 102.300        43
 102.400        26
 102.500        34
 102.600        38
 102.700        43
 102.800        77
 102.900       182
 103.000       201
 103.100        62
 103.200        73
 103.300       156
 103.400        90
 103.500        47
 103.600        53
 103.700        47
 103.800        43
 103.900        62
 104.000       102
 104.100       278
 104.200       306
 104.300        98
 104.400        86
 104.500       201
 104.600       129
 104.700        40
 104.800        43
 104.900        44
 105.000        32
 105.100        36
 105.200        40
 105.300        38
 105.400        33
 105.500        29
 105.600        67
 105.700       125
 105.800       243
 105.900       153
 106.000        77
 106.100        98
 106.200       125
 106.300        67
 106.400        53
 106.500        37
 106.600        32
 106.700        32
 106.800        37
 106.900        43
 107.000        24
 107.100        47
 107.200        30
 107.300        33
 107.400        79
 107.500        84
 107.600        38
 107.700        32
 107.800        62
 107.900        42
 108.000        40
 108.100        33
 108.200        32
 108.300        33
 108.400        24
 108.500        26
 108.600        32
 108.700        26
 108.800        29
 108.900        40
 109.000        30
 109.100        33
 109.200        33
 109.300        31
 109.400        27
 109.500        37
 109.600        36
 109.700        31
 109.800        33
 109.900        38
 110.000        43
 110.100        46
 110.200        60
 110.300       110
 110.400       240
 110.500       144
 110.600        79
 110.700        82
 110.800       146
 110.900       106
 111.000        92
 111.100        51
 111.200        32
 111.300        47
 111.400        42
 111.500        43
 111.600        28
 111.700        32
 111.800        23
 111.900        34
 112.000        17
 112.100        34
 112.200        37
 112.300        33
 112.400        33
 112.500        38
 112.600        44
 112.700        59
 112.800        56
 112.900       121
 113.000       259
 113.100       316
 113.200       110
 113.300        88
 113.400       118
 113.500       196
 113.600        94
 113.700        59
 113.800        62
 113.900        37
 114.000        59
 114.100        54
 114.200        43
 114.300        37
 114.400        37
 114.500        50
 114.600        40
 114.700        38
 114.800        31
 114.900        27
 115.000        29
 115.100        37
 115.200        39
 115.300        46
 115.400        62
 115.500        79
 115.600        62
 115.700        59
 115.800        57
 115.900        84
 116.000       112
 116.100       213
 116.200       342
 116.300       566
 116.400       316
 116.500       174
 116.600       196
 116.700       275
 116.800       272
 116.900       132
 117.000        65
 117.100        72
 117.200        60
 117.300        43
 117.400        32
 117.500        44
 117.600        38
 117.700        49
 117.800        84
 117.900        77
 118.000        60
 118.100        40
 118.200        30
 118.300        54
 118.400        56
 118.500        36
 118.600        47
 118.700        30
 118.800        37
 118.900        47
 119.000        27
 119.100        28
 119.200        38
 119.300        30
 119.400        32
 119.500        24
 119.600        29
 119.700        25
 119.800        31
 119.900        37
 120.000        37
 120.100        47
 120.200        38
 120.300        29
 120.400        29
 120.500        32
 120.600        36
 120.700        30
 120.800        40
 120.900        27
 121.000        30
 121.100        43
 121.200        37
 121.300        46
 121.400        70
 121.500       166
 121.600       342
 121.700       163
 121.800        62
 121.900        81
 122.000       106
 122.100       204
 122.200       139
 122.300        60
 122.400        47
 122.500        53
 122.600        60
 122.700        36
 122.800        40
 122.900        38
 123.000        33
 123.100        29
 123.200        34
 123.300        37
 123.400        26
 123.500        32
 123.600        27
 123.700        29
 123.800        38
 123.900        29
 124.000        36
 124.100        30
 124.200        34
 124.300        38
 124.400        44
 124.500        43
 124.600        65
 124.700        51
 124.800        44
 124.900        47
 125.000        47
 125.100        49
 125.200        90
 125.300        75
 125.400        46
 125.500        43
 125.600        50
 125.700        65
 125.800        81
 125.900        98
 126.000       100
 126.100       240
 126.200       376
 126.300       240
 126.400       121
 126.500        81
 126.600       121
 126.700       174
 126.800       193
 126.900        88
 127.000        56
 127.100        46
 127.200        53
 127.300        42
 127.400        50
 127.500        68
 127.600        96
 127.700       158
 127.800       110
 127.900        82
 128.000        65
 128.100        59
 128.200        72
 128.300        88
 128.400        62
 128.500        46
 128.600        31
 128.700        32
 128.800        30
 128.900        38
 129.000        38
 129.100        34
 129.200        32
 129.300        30
 129.400        39
 129.500        38
 129.600        32
 129.700        64
 129.800        53
 129.900       100
 130.000        82
 130.100        38
 130.200        38
 130.300        38
 130.400        49
 130.500        54
 130.600        59
 130.700        37
 130.800        47
 130.900        44
 131.000        77
 131.100        75
 131.200        67
 131.300        67
 131.400        38
 131.500        36
 131.600        38
 131.700        44
 131.800        65
 131.900        40
 132.000        50
 132.100        38
 132.200        38
 132.300        38
 132.400        38
 132.500        42
 132.600        42
 132.700        33
 132.800        43
 132.900        39
 133.000        40
 133.100        30
 133.200        34
 133.300        34
 133.400        32
 133.500        37
 133.600        39
 133.700        43
 133.800       100
 133.900       204
 134.000       272
 134.100       132
 134.200        72
 134.300        65
 134.400        60
 134.500        84
 134.600       136
 134.700       153
 134.800        88
 134.900        65
 135.000        81
 135.100       123
 135.200       158
 135.300       151
 135.400        96
 135.500        73
 135.600        77
 135.700        75
 135.800       100
 135.900       146
 136.000       198
 136.100       246
 136.200       171
 136.300        84
 136.400       100
 136.500       110
 136.600       125
 136.700       127
 136.800       148
 136.900       129
 137.000       106
 137.100        75
 137.200        62
 137.300        72
 137.400        67
 137.500        43
 137.600        46
 137.700        43
 137.800        32
 137.900        42
 138.000        42
 138.100        39
 138.200        43
 138.300        50
 138.400        73
 138.500       114
 138.600       132
 138.700        86
 138.800        54
 138.900        42
 139.000        40
 139.100        38
 139.200        65
 139.300        88
 139.400        70
 139.500        65
 139.600        43
 139.700        36
 139.800        38
 139.900        38
 140.000        38
 140.100        31
 140.200        27
 140.300        43
 140.400        38
 140.500        34
 140.600        33
 140.700        37
 140.800        33
 140.900        47
 141.000        34
 141.100        47
 141.200        34
 141.300        50
 141.400        32
 141.500        46
 141.600        29
 141.700        33
 141.800        43
 141.900        47
 142.000        33
 142.100        50
 142.200        54
 142.300        47
 142.400        67
 142.500        49
 142.600        50
 142.700        50
 142.800        75
 142.900       153
 143.000       176
 143.100       134
 143.200        92
 143.300        73
 143.400        54
 143.500        57
 143.600        56
 143.700        72
 143.800       102
 143.900        96
 144.000        73
 144.100        47
 144.200        43
 144.300        40
 144.400        37
 144.500        40
 144.600        40
 144.700        38
 144.800        47
 144.900        39
 145.000        56
 145.100        82
 145.200        98
 145.300        94
 145.400        75
 145.500        50
 145.600        40
 145.700        49
 145.800        38
 145.900        46
 146.000        56
 146.100        72
 146.200        59
 146.300        56
 146.400        50
 146.500        43
 146.600        39
 146.700        31
 146.800        33
 146.900        32
 147.000        39
 147.100        29
 147.200        25
 147.300        36
 147.400        49
 147.500        36
 147.600        27
 147.700        42
 147.800        40
 147.900        38
 148.000        43
 148.100        31
 148.200        28
 148.300        33
 148.400        32
 148.500        33
 148.600        40
 148.700        32
 148.800        43
 148.900        38
 149.000        39
 149.100        53
 149.200        88
 149.300        88
 149.400        56
 149.500        67
 149.600        56
 149.700        39
 149.800        50
 149.900        62
 150.000        79