File: data/XRD/CPD-1A.PRN
   5.000       153
   5.100       163
   5.200       129
   5.300       127
   5.400       129
   5.500       127
   5.600       123
   5.700       136
   5.800       132
   5.900       127
   6.000       116
   6.100       100
   6.200       118
   6.300       106
   6.400       118
   6.500       106
   6.600        98
   6.700       104
   6.800       106
   6.900       102
   7.000       100
   7.100        82
   7.200       110
   7.300        94
   7.400       110
   7.500        98
   7.600        88
   7.700        86
   7.800        81
   7.900        86
   8.000        92
   8.100        86
   8.200        65
   8.300        70
   8.400        75
   8.500       100
   8.600        81
   8.700        79
   8.800        64
   8.900        92
   9.000        75
   9.100        86
   9.200        84
   9.300        77
   9.400        67
   9.500        72
   9.600        65
   9.700        67
   9.800        67
   9.900        65
  10.000        53
  10.100        60
  10.200        50
  10.300        67
  10.400        54
  10.500        56
  10.600        57
  10.700        50
  10.800        75
  10.900        65
  11.000        62
  11.100        56
  11.200        47
  11.300        47
  11.400        64
  11.500        54
  11.600        56
  11.700        49
  11.800        56
  11.900        49
  12.000        47
  12.100        56
  12.200        49
  12.300        46
  12.400        53
  12.500        50
  12.600        43
  12.700        42
  12.800        43
  12.900        50
  13.000        43
  13.100        51
  13.200        51
  13.300        39
  13.400        53
  13.500        43
  13.600        44
  13.700        33
  13.800        49
  13.900        50
  14.000        50
  14.100        47
  14.200        32
  14.300        47
  14.400        49
  14.500        43
  14.600        34
  14.700        38
  14.800        36
  14.900        42
  15.000        36
  15.100        39
  15.200        39
  15.300        32
  15.400        37
  15.500        39
  15.600        31
  15.700        30
  15.800        38
  15.900        38
  16.000        30
  16.100        32
  16.200        36
  16.300        34
  16.400        42
  16.500        36
  16.600        31
  16.700        39
  16.800        32
  16.900        43
  17.000        32
  17.100        34
  17.200        26
  17.300        40
  17.400        27
  17.500        25
  17.600        29
  17.700        29
  17.800        32
  17.900        31
  18.000        28
  18.100        23
  18.200        29
  18.300        33
  18.400        32
  18.500        30
  18.600        16
  18.700        21
  18.800        29
  18.900        34
  19.000        26
  19.100        34
  19.200        32
  19.300        23
  19.400        25
  19.500        28
  19.600        38
  19.700        21
  19.800        28
  19.900        28
  20.000        16
  20.100        26
  20.200        36
  20.300        16
  20.400        20
  20.500        44
  20.600        12
  20.700        28
  20.800        24
  20.900        17
  21.000        19
  21.100        22
  21.200        22
  21.300        21
  21.400        20
  21.500        28
  21.600        26
  21.700        22
  21.800        15
  21.900        13
  22.000        12
  22.100        30
  22.200        17
  22.300        27
  22.400        28
  22.500        21
  22.600        21
  22.700        21
  22.800        29
  22.900        20
  23.000        26
  23.100        24
  23.200        22
  23.300        23
  23.400        24
  23.500        19
  23.600        25
  23.700        29
  23.800        23
  23.900        29
  24.000        27
  24.100        17
  24.200        21
  24.300        30
  24.400        24
  24.500        13
  24.600        16
  24.700        21
  24.800        23
  24.900        16
  25.000        22
  25.100        17
  25.200        23
  25.300        24
  25.400        27
  25.500        47
  25.600        46
  25.700        29
  25.800        24
  25.900        21
  26.000        21
  26.100        16
  26.200        20
  26.300        26
  26.400        26
  26.500        25
  26.600        22
  26.700        21
  26.800        16
  26.900        21
  27.000        19
  27.100        28
  27.200        20
  27.300        25
  27.400        31
  27.500        33
  27.600        46
  27.700        68
  27.800        88
  27.900       129
  28.000       234
  28.100       852
  28.200      4489
  28.300      9741
  28.400      2016
  28.500       262
  28.600       134
  28.700        68
  28.800        56
  28.900        43
  29.000        32
  29.100        28
  29.200        22
  29.300        30
  29.400        24
  29.500        13
  29.600        22
  29.700        28
  29.800        21
  29.900        19
  30.000        19
  30.100        16
  30.200        19
  30.300        23
  30.400        10
  30.500        19
  30.600        16
  30.700        19
  30.800        15
  30.900        20
  31.000        15
  31.100        13
  31.200        12
  31.300        32
  31.400        19
  31.500        21
  31.600        39
  31.700       158
  31.800       342
  31.900       116
  32.000        38
  32.100        24
  32.200        26
  32.300        22
  32.400        26
  32.500        16
  32.600        16
  32.700        43
  32.800        51
  32.900        34
  33.000        25
  33.100        12
  33.200        12
  33.300        15
  33.400        26
  33.500        16
  33.600        19
  33.700        19
  33.800        16
  33.900        16
  34.000        21
  34.100        26
  34.200        23
  34.300        51
  34.400       243
  34.500       144
  34.600        42
  34.700        26
  34.800        16
  34.900        17
  35.000        24
  35.100        34
  35.200        43
  35.300        24
  35.400        16
  35.500        17
  35.600        33
  35.700        26
  35.800        29
  35.900        43
  36.000        32
  36.100        67
  36.200       327
  36.300       492
  36.400       166
  36.500        43
  36.600        24
  36.700        20
  36.800        24
  36.900        19
  37.000        27
  37.100        20
  37.200        19
  37.300        16
  37.400        12
  37.500        20
  37.600        12
  37.700        20
  37.800        32
  37.900        21
  38.000        13
  38.100        10
  38.200        12
  38.300        17
  38.400        20
  38.500        15
  38.600         9
  38.700        16
  38.800        16
  38.900        16
  39.000        10
  39.100        16
  39.200        19
  39.300        17
  39.400        10
  39.500        15
  39.600        19
  39.700        21
  39.800        15
  39.900        12
  40.000         2
  40.100        20
  40.200        15
  40.300        12
  40.400        19
  40.500        13
  40.600        19
  40.700        15
  40.800        19
  40.900        19
  41.000        15
  41.100        19
  41.200        16
  41.300        15
  41.400        28
  41.500        12
  41.600        23
  41.700        17
  41.800        17
  41.900        16
  42.000        20
  42.100        26
  42.200        26
  42.300        22
  42.400        22
  42.500        12
  42.600        22
  42.700        16
  42.800        21
  42.900        31
  43.000        20
  43.100        19
  43.200        17
  43.300        46
  43.400        42
  43.500        33
  43.600        29
  43.700        16
  43.800        25
  43.900        10
  44.000        16
  44.100        22
  44.200        17
  44.300        19
  44.400        16
  44.500        20
  44.600        25
  44.700        26
  44.800        26
  44.900        26
  45.000        32
  45.100        17
  45.200        25
  45.300        28
  45.400        23
  45.500        32
  45.600        24
  45.700        43
  45.800        32
  45.900        43
  46.000        38
  46.100        34
  46.200        43
  46.300        56
  46.400        67
  46.500       102
  46.600       136
  46.700       225
  46.800       453
  46.900      2106
  47.000     10020
  47.100      5715
  47.200      1772
  47.300       334
  47.400       174
  47.500       184
  47.600       163
  47.700       132
  47.800        46
  47.900        47
  48.000        37
  48.100        27
  48.200        32
  48.300        32
  48.400        25
  48.500        23
  48.600        29
  48.700        30
  48.800        34
  48.900        21
  49.000        21
  49.100        17
  49.200        25
  49.300        22
  49.400        12
  49.500        25
  49.600        26
  49.700        12
  49.800        16
  49.900        25
  50.000        29
  50.100        32
  50.200        21
  50.300        17
  50.400        15
  50.500        19
  50.600        20
  50.700        17
  50.800        16
  50.900        16
  51.000        12
  51.100        19
  51.200        15
  51.300        16
  51.400        21
  51.500        22
  51.600        19
  51.700        21
  51.800        22
  51.900        19
  52.000        15
  52.100        21
  52.200        13
  52.300        21
  52.400        29
  52.500        25
  52.600        31
  52.700        23
  52.800        23
  52.900         7
  53.000        12
  53.100        16
  53.200        10
  53.300        19
  53.400        17
  53.500        24
  53.600        22
  53.700        21
  53.800        30
  53.900        16
  54.000        13
  54.100        13
  54.200        16
  54.300        21
  54.400        21
  54.500        30
  54.600        22
  54.700        30
  54.800        22
  54.900        23
  55.000        29
  55.100        32
  55.200        30
  55.300        43
  55.400        57
  55.500       136
  55.600       256
  55.700      1560
  55.800      2381
  55.900      1536
  56.000       428
  56.100       116
  56.200        57
  56.300        51
  56.400        33
  56.500        64
  56.600       210
  56.700       118
  56.800        84
  56.900        26
  57.000        29
  57.100        30
  57.200        20
  57.300        13
  57.400        22
  57.500        50
  57.600        32
  57.700        33
  57.800        29
  57.900        22
  58.000        13
  58.100        15
  58.200        12
  58.300        21
  58.400        29
  58.500        40
  58.600        30
  58.700        26
  58.800        10
  58.900         9
  59.000        20
  59.100        12
  59.200        13
  59.300        16
  59.400        12
  59.500        16
  59.600        10
  59.700        19
  59.800         9
  59.900        17
  60.000        16
  60.100        12
  60.200        16
  60.300        12
  60.400         6
  60.500        12
  60.600         4
  60.700        10
  60.800        16
  60.900        21
  61.000        13
  61.100        16
  61.200        12
  61.300        25
  61.400        10
  61.500        10
  61.600        16
  61.700        20
  61.800        10
  61.900        16
  62.000        16
  62.100        10
  62.200         7
  62.300        20
  62.400         9
  62.500        21
  62.600        24
  62.700        25
  62.800        92
  62.900       125
  63.000        73
  63.100        53
  63.200        20
  63.300        16
  63.400        10
  63.500        12
  63.600        15
  63.700         9
  63.800        10
  63.900         9
  64.000        20
  64.100         9
  64.200        12
  64.300        10
  64.400        10
  64.500        12
  64.600         7
  64.700        12
  64.800        15
  64.900        12
  65.000        15
  65.100        16
  65.200         9
  65.300        16
  65.400        15
  65.500        12
  65.600        10
  65.700        12
  65.800         9
  65.900        12
  66.000        12
  66.100        12
  66.200        13
  66.300        10
  66.400        38
  66.500        36
  66.600        30
  66.700        12
  66.800        16
  66.900        20
  67.000        20
  67.100        13
  67.200        10
  67.300        19
  67.400        15
  67.500        13
  67.600        22
  67.700        30
  67.800        34
  67.900        82
  68.000       114
  68.100        70
  68.200        88
  68.300        56
  68.400        56
  68.500        98
  68.600       506
  68.700       894
  68.800       380
  68.900       388
  69.000        90
  69.100       102
  69.200        43
  69.300        47
  69.400        25
  69.500        20
  69.600        16
  69.700        16
  69.800        22
  69.900         9
  70.000        12
  70.100        12
  70.200        12
  70.300        20
  70.400        16
  70.500        17
  70.600        16
  70.700        15
  70.800        16
  70.900        19
  71.000        12
  71.100        16
  71.200        12
  71.300        15
  71.400         6
  71.500        10
  71.600        13
  71.700        12
  71.800        12
  71.900        12
  72.000        16
  72.100        12
  72.200        12
  72.300        16
  72.400        12
  72.500        20
  72.600        24
  72.700        13
  72.800        15
  72.900        17
  73.000        15
  73.100        12
  73.200        16
  73.300        10
  73.400         7
  73.500        22
  73.600        12
  73.700         9
  73.800        19
  73.900         9
  74.000        15
  74.100         9
  74.200        12
  74.300        16
  74.400        20
  74.500        21
  74.600        12
  74.700        13
  74.800        10
  74.900        13
  75.000        21
  75.100        13
  75.200        30
  75.300        32
  75.400        22
  75.500        47
  75.600        49
  75.700       139
  75.800       670
  75.900       556
  76.000       338
  76.100       396
  76.200        82
  76.300        43
  76.400        29
  76.500        17
  76.600        19
  76.700        24
  76.800        19
  76.900        22
  77.000        34
  77.100        28
  77.200        36
  77.300        27
  77.400        16
  77.500        13
  77.600        12
  77.700        16
  77.800        16
  77.900        22
  78.000        16
  78.100        43
  78.200        81
  78.300        37
  78.400        53
  78.500        22
  78.600        19
  78.700        15
  78.800        16
  78.900        12
  79.000        19
  79.100        12
  79.200        12
  79.300        19
  79.400        12
  79.500        17
  79.600        12
  79.700         9
  79.800        10
  79.900        13
  80.000        13
  80.100         9
  80.200        19
  80.300        12
  80.400         6
  80.500        12
  80.600         7
  80.700        10
  80.800        10
  80.900        20
  81.000        12
  81.100        12
  81.200        10
  81.300         9
  81.400        20
  81.500        16
  81.600        16
  81.700         9
  81.800        12
  81.900        10
  82.000        13
  82.100        12
  82.200        21
  82.300        15
  82.400        10
  82.500        26
  82.600        16
  82.700        17
  82.800        10
  82.900        17
  83.000        19
  83.100        17
  83.200        13
  83.300         7
  83.400        13
  83.500        16
  83.600        12
  83.700         9
  83.800        15
  83.900        13
  84.000        16
  84.100        10
  84.200        15
  84.300        10
  84.400        13
  84.500        16
  84.600         7
  84.700        12
  84.800        16
  84.900        15
  85.000        15
  85.100        16
  85.200        17
  85.300        20
  85.400        12
  85.500        16
  85.600        19
  85.700        22
  85.800        15
  85.900        28
  86.000        21
  86.100        21
  86.200        13
  86.300        22
  86.400        24
  86.500        26
  86.600        23
  86.700        26
  86.800        38
  86.900        50
  87.000        65
  87.100        73
  87.200       169
  87.300       696
  87.400      1383
  87.500       542
  87.600       600
  87.700       552
  87.800       146
  87.900        56
  88.000        37
  88.100        36
  88.200        26
  88.300        22
  88.400        24
  88.500        29
  88.600        28
  88.700        23
  88.800        12
  88.900        24
  89.000        21
  89.100        15
  89.200        22
  89.300        13
  89.400        20
  89.500        17
  89.600        53
  89.700        32
  89.800        19
  89.900        43
  90.000        24
  90.100        15
  90.200        15
  90.300        12
  90.400        13
  90.500        16
  90.600        12
  90.700        19
  90.800         7
  90.900        12
  91.000         9
  91.100        15
  91.200        21
  91.300        12
  91.400         7
  91.500        12
  91.600        10
  91.700        16
  91.800        16
  91.900        13
  92.000        24
  92.100         9
  92.200        19
  92.300        12
  92.400        15
  92.500        16
  92.600        16
  92.700        24
  92.800        29
  92.900        10
  93.000        24
  93.100        17
  93.200        16
  93.300        16
  93.400        17
  93.500        12
  93.600        25
  93.700        31
  93.800        27
  93.900        25
  94.000        67
  94.100       207
  94.200       585
  94.300       268
  94.400       141
  94.500       265
  94.600       148
  94.700        53
  94.800        32
  94.900        23
  95.000        17
  95.100        15
  95.200        38
  95.300        64
  95.400        51
  95.500        27
  95.600        32
  95.700        17
  95.800        16
  95.900        10
  96.000        10
  96.100        15
  96.200        16
  96.300        16
  96.400        15
  96.500        12
  96.600        16
  96.700        10
  96.800        10
  96.900        10
  97.000        16
  97.100        10
  97.200        10
  97.300        15
  97.400        15
  97.500        13
  97.600        16
  97.700        12
  97.800         7
  97.900        16
  98.000        10
  98.100         5
  98.200        21
  98.300        10
  98.400        16
  98.500        19
  98.600        32
  98.700        23
  98.800        16
  98.900        23
  99.000        27
  99.100        19
  99.200        10
  99.300        15
  99.400        16
  99.500        16
  99.600        10
  99.700        12
  99.800        16
  99.900        10
 100.000        16
 100.100         5
 100.200        16
 100.300         6
 100.400        12
 100.500        10
 100.600        13
 100.700        13
 100.800        10
 100.900        16
 101.000        12
 101.100        12
 101.200        12
 101.300        13
 101.400        20
 101.500         9
 101.600        16
 101.700        19
 101.800        12
 101.900        12
 102.000        13
 102.100        19
 102.200        12
 102.300        19
 102.400        21
 102.500        15
 102.600        12
 102.700        10
 102.800        16
 102.900        15
 103.000        33
 103.100        16
 103.200        17
 103.300        20
 103.400        19
 103.500        12
 103.600        20
 103.700        23
 103.800        16
 103.900        12
 104.000        16
 104.100        38
 104.200        37
 104.300        22
 104.400        22
 104.500        30
 104.600        25
 104.700        12
 104.800        12
 104.900        10
 105.000        15
 105.100        29
 105.200        26
 105.300        16
 105.400        43
 105.500        38
 105.600        77
 105.700       182
 105.800       424
 105.900       219
 106.000       100
 106.100       148
 106.200       196
 106.300        86
 106.400        38
 106.500        19
 106.600        24
 106.700        22
 106.800        15
 106.900        15
 107.000        19
 107.100        15
 107.200        16
 107.300        12
 107.400        15
 107.500        21
 107.600        12
 107.700        12
 107.800         9
 107.900        10
 108.000        10
 108.100        12
 108.200        12
 108.300        12
 108.400        17
 108.500        16
 108.600        16
 108.700        22
 108.800        16
 108.900        16
 109.000        21
 109.100        16
 109.200        12
 109.300         9
 109.400        10
 109.500        10
 109.600        10
 109.700        17
 109.800        16
 109.900        19
 110.000        16
 110.100        13
 110.200        13
 110.300        16
 110.400        27
 110.500        26
 110.600        22
 110.700        16
 110.800        27
 110.900        16
 111.000        23
 111.100        12
 111.200        15
 111.300        17
 111.400        15
 111.500        19
 111.600        13
 111.700        17
 111.800        20
 111.900        19
 112.000        28
 112.100        21
 112.200        24
 112.300        22
 112.400        28
 112.500        32
 112.600        33
 112.700        50
 112.800        72
 112.900       158
 113.000       470
 113.100       488
 113.200       225
 113.300       121
 113.400       216
 113.500       289
 113.600       156
 113.700        70
 113.800        47
 113.900        23
 114.000        22
 114.100        21
 114.200        23
 114.300        16
 114.400        16
 114.500        15
 114.600        12
 114.700        15
 114.800        23
 114.900        15
 115.000        16
 115.100        21
 115.200        16
 115.300        20
 115.400        28
 115.500        65
 115.600        62
 115.700        33
 115.800        21
 115.900        38
 116.000        28
 116.100        43
 116.200        24
 116.300        75
 116.400        34
 116.500        20
 116.600        27
 116.700        20
 116.800        38
 116.900        22
 117.000        22
 117.100        24
 117.200        22
 117.300        19
 117.400        16
 117.500        15
 117.600        16
 117.700        10
 117.800        13
 117.900        27
 118.000        12
 118.100        16
 118.200        16
 118.300        16
 118.400        15
 118.500        12
 118.600        19
 118.700        16
 118.800        16
 118.900        12
 119.000        15
 119.100        12
 119.200        17
 119.300        20
 119.400        16
 119.500        13
 119.600        16
 119.700        16
 119.800        16
 119.900        19
 120.000        10
 120.100        19
 120.200        16
 120.300        15
 120.400        10
 120.500        20
 120.600         9
 120.700        24
 120.800        16
 120.900        21
 121.000         6
 121.100        12
 121.200        16
 121.300        20
 121.400        15
 121.500        16
 121.600        38
 121.700        22
 121.800        19
 121.900        12
 122.000        26
 122.100        24
 122.200        25
 122.300        19
 122.400        12
 122.500        13
 122.600        16
 122.700        16
 122.800        13
 122.900        10
 123.000        12
 123.100        13
 123.200        17
 123.300        16
 123.400        19
 123.500        12
 123.600        15
 123.700        20
 123.800        20
 123.900        12
 124.000        21
 124.100        27
 124.200        16
 124.300        16
 124.400        21
 124.500        16
 124.600        21
 124.700        24
 124.800        22
 124.900        28
 125.000        17
 125.100        25
 125.200        30
 125.300        24
 125.400        31
 125.500        32
 125.600        27
 125.700        42
 125.800        50
 125.900        88
 126.000       174
 126.100       432
 126.200       670
 126.300       380
 126.400       166
 126.500       121
 126.600       153
 126.700       320
 126.800       265
 126.900       129
 127.000        88
 127.100        62
 127.200        42
 127.300        22
 127.400        26
 127.500        28
 127.600        25
 127.700        20
 127.800        21
 127.900        29
 128.000        21
 128.100        17
 128.200        16
 128.300        19
 128.400        24
 128.500        10
 128.600        27
 128.700        22
 128.800         7
 128.900        22
 129.000        23
 129.100        21
 129.200         9
 129.300        16
 129.400        20
 129.500        20
 129.600        19
 129.700        10
 129.800        12
 129.900        23
 130.000        15
 130.100        16
 130.200        12
 130.300        19
 130.400        20
 130.500        23
 130.600        17
 130.700        15
 130.800        19
 130.900        17
 131.000        21
 131.100        22
 131.200        17
 131.300        17
 131.400        16
 131.500        16
 131.600        12
 131.700        24
 131.800        15
 131.900        12
 132.000        16
 132.100        12
 132.200        16
 132.300        17
 132.400        13
 132.500        16
 132.600        12
 132.700        12
 132.800        12
 132.900        23
 133.000        13
 133.100        10
 133.200        17
 133.300        17
 133.400        10
 133.500        21
 133.600        10
 133.700        19
 133.800        25
 133.900        32
 134.000        42
 134.100        28
 134.200        25
 134.300        16
 134.400        25
 134.500        24
 134.600        37
 134.700        32
 134.800        49
 134.900        59
 135.000        70
 135.100       136
 135.200       256
 135.300       182
 135.400       110
 135.500        84
 135.600        62
 135.700        65
 135.800       108
 135.900       136
 136.000       127
 136.100        72
 136.200        49
 136.300        33
 136.400        24
 136.500        23
 136.600        16
 136.700        31
 136.800        26
 136.900        23
 137.000        20
 137.100        17
 137.200        13
 137.300        20
 137.400        16
 137.500        19
 137.600        22
 137.700        13
 137.800        22
 137.900        17
 138.000        21
 138.100        26
 138.200        24
 138.300        28
 138.400        38
 138.500        62
 138.600        72
 138.700        47
 138.800        22
 138.900        39
 139.000        23
 139.100        27
 139.200        38
 139.300        40
 139.400        32
 139.500        31
 139.600        15
 139.700        15
 139.800        16
 139.900        16
 140.000        13
 140.100        17
 140.200        16
 140.300        13
 140.400        16
 140.500         9
 140.600        25
 140.700        15
 140.800         9
 140.900        16
 141.000        13
 141.100        16
 141.200        16
 141.300        12
 141.400        17
 141.500        17
 141.600        15
 141.700        19
 141.800        16
 141.900        16
 142.000        23
 142.100        17
 142.200        16
 142.300        23
 142.400        21
 142.500        30
 142.600        10
 142.700        19
 142.800        15
 142.900        15
 143.000        26
 143.100        28
 143.200        12
 143.300        20
 143.400        20
 143.500        24
 143.600        17
 143.700        16
 143.800        22
 143.900        25
 144.000        20
 144.100        15
 144.200        16
 144.300        16
 144.400        21
 144.500        16
 144.600        19
 144.700        27
 144.800        21
 144.900        17
 145.000        10
 145.100        17
 145.200        17
 145.300        21
 145.400        19
 145.500        17
 145.600        12
 145.700        15
 145.800        21
 145.900        15
 146.000        10
 146.100        16
 146.200        19
 146.300        16
 146.400        23
 146.500        16
 146.600        15
 146.700        24
 146.800        20
 146.900        12
 147.000        16
 147.100        10
 147.200        16
 147.300        16
 147.400        17
 147.500        22
 147.600        15
 147.700        23
 147.800        12
 147.900        17
 148.000        20
 148.100        10
 148.200        26
 148.300        21
 148.400        15
 148.500        12
 148.600        13
 148.700        24
 148.800        13
 148.900        16
 149.000        21
 149.100        13
 149.200        19
 149.300        23
 149.400        17
 149.500        16
 149.600        24
 149.700        17
 149.800        19
 149.900        13
 150.000        21