File: data/XRD/CPD-Y2O3.PRN
   5.000       484
   5.100       462
   5.200       428
   5.300       453
   5.400       441
   5.500       457
   5.600       436
   5.700       445
   5.800       404
   5.900       432
   6.000       357
   6.100       392
   6.200       396
   6.300       349
   6.400       376
   6.500       357
   6.600       361
   6.700       372
   6.800       368
   6.900       338
   7.000       345
   7.100       349
   7.200       295
   7.300       289
   7.400       320
   7.500       331
   7.600       309
   7.700       327
   7.800       295
   7.900       285
   8.000       285
   8.100       272
   8.200       246
   8.300       275
   8.400       219
   8.500       265
   8.600       295
   8.700       275
   8.800       252
   8.900       275
   9.000       278
   9.100       262
   9.200       225
   9.300       240
   9.400       268
   9.500       262
   9.600       219
   9.700       231
   9.800       249
   9.900       213
  10.000       237
  10.100       228
  10.200       231
  10.300       225
  10.400       256
  10.500       228
  10.600       246
  10.700       210
  10.800       210
  10.900       213
  11.000       201
  11.100       190
  11.200       225
  11.300       166
  11.400       216
  11.500       179
  11.600       187
  11.700       196
  11.800       213
  11.900       198
  12.000       169
  12.100       201
  12.200       169
  12.300       184
  12.400       179
  12.500       161
  12.600       190
  12.700       158
  12.800       169
  12.900       169
  13.000       151
  13.100       174
  13.200       151
  13.300       166
  13.400       174
  13.500       169
  13.600       153
  13.700       163
  13.800       151
  13.900       163
  14.000       156
  14.100       158
  14.200       158
  14.300       166
  14.400       125
  14.500       156
  14.600       153
  14.700       148
  14.800       144
  14.900       153
  15.000       163
  15.100       153
  15.200       158
  15.300       144
  15.400       123
  15.500       153
  15.600       129
  15.700       136
  15.800       125
  15.900       153
  16.000       112
  16.100       144
  16.200       141
  16.300       121
  16.400       134
  16.500       144
  16.600       153
  16.700       324
  16.800       249
  16.900       153
  17.000       121
  17.100       129
  17.200       132
  17.300       136
  17.400       116
  17.500       121
  17.600       114
  17.700       102
  17.800       106
  17.900       114
  18.000       118
  18.100       110
  18.200       108
  18.300       116
  18.400       106
  18.500       125
  18.600       129
  18.700       116
  18.800       118
  18.900        96
  19.000        96
  19.100       106
  19.200       116
  19.300        98
  19.400        92
  19.500       114
  19.600       123
  19.700       127
  19.800       127
  19.900       125
  20.000       144
  20.100       207
  20.200       349
  20.300       718
  20.400      2227
  20.500      9196
  20.600      3956
  20.700       449
  20.800       275
  20.900       141
  21.000       141
  21.100       132
  21.200       112
  21.300       100
  21.400       125
  21.500        92
  21.600       106
  21.700        98
  21.800       102
  21.900        96
  22.000       104
  22.100        96
  22.200       100
  22.300       110
  22.400       112
  22.500        81
  22.600       108
  22.700       100
  22.800        86
  22.900        98
  23.000       104
  23.100       102
  23.200       100
  23.300        64
  23.400        81
  23.500        79
  23.600        96
  23.700        96
  23.800       108
  23.900        86
  24.000       100
  24.100        84
  24.200        94
  24.300        79
  24.400        84
  24.500       108
  24.600        79
  24.700        88
  24.800       100
  24.900        88
  25.000        84
  25.100        92
  25.200        92
  25.300        82
  25.400        84
  25.500        86
  25.600        88
  25.700        96
  25.800        94
  25.900        86
  26.000        94
  26.100       106
  26.200       118
  26.300       222
  26.400       110
  26.500       100
  26.600       102
  26.700        98
  26.800        79
  26.900        79
  27.000       100
  27.100        92
  27.200        98
  27.300       108
  27.400        90
  27.500        94
  27.600        94
  27.700       118
  27.800       114
  27.900       169
  28.000       184
  28.100       144
  28.200       184
  28.300       225
  28.400       292
  28.500       353
  28.600       436
  28.700       707
  28.800      1004
  28.900      1789
  29.000      6006
  29.100     31506
  29.200     76950
  29.300     17108
  29.400      2371
  29.500      1108
  29.600       590
  29.700       380
  29.800       327
  29.900       262
  30.000       225
  30.100       174
  30.200       161
  30.300       146
  30.400       156
  30.500       148
  30.600       125
  30.700       112
  30.800        98
  30.900       104
  31.000       106
  31.100       106
  31.200        98
  31.300       102
  31.400       121
  31.500       201
  31.600       372
  31.700       153
  31.800        81
  31.900        94
  32.000        98
  32.100        84
  32.200        82
  32.300        94
  32.400        98
  32.500        94
  32.600        82
  32.700       110
  32.800       116
  32.900       129
  33.000       121
  33.100       146
  33.200       169
  33.300       207
  33.400       278
  33.500       384
  33.600       789
  33.700      3794
  33.800     19071
  33.900      9604
  34.000      1043
  34.100       392
  34.200       228
  34.300       171
  34.400       156
  34.500       121
  34.600       110
  34.700       100
  34.800       106
  34.900        96
  35.000       116
  35.100        88
  35.200       102
  35.300        84
  35.400       102
  35.500       104
  35.600       144
  35.700       201
  35.800       615
  35.900      3588
  36.000      2470
  36.100       400
  36.200       163
  36.300       121
  36.400        96
  36.500        92
  36.600        77
  36.700        90
  36.800        70
  36.900        60
  37.000        84
  37.100        64
  37.200        68
  37.300        77
  37.400       114
  37.500        79
  37.600        77
  37.700       104
  37.800       171
  37.900       691
  38.000       670
  38.100       210
  38.200        92
  38.300        96
  38.400        86
  38.500        75
  38.600        77
  38.700        72
  38.800        92
  38.900        65
  39.000        86
  39.100        90
  39.200       112
  39.300        88
  39.400       106
  39.500       114
  39.600       166
  39.700       384
  39.800      1971
  39.900      4032
  40.000      1831
  40.100       237
  40.200       121
  40.300        96
  40.400        86
  40.500        98
  40.600        81
  40.700        70
  40.800        82
  40.900        79
  41.000        65
  41.100        82
  41.200        73
  41.300        86
  41.400        77
  41.500       104
  41.600       136
  41.700       707
  41.800       484
  41.900       163
  42.000       104
  42.100        86
  42.200        86
  42.300        86
  42.400        67
  42.500        79
  42.600        79
  42.700        77
  42.800        96
  42.900        98
  43.000       110
  43.100       125
  43.200       176
  43.300       299
  43.400      1089
  43.500      6707
  43.600      3708
  43.700       723
  43.800       240
  43.900       144
  44.000       104
  44.100        86
  44.200        84
  44.300       102
  44.400        82
  44.500        88
  44.600        84
  44.700        92
  44.800        79
  44.900        84
  45.000        86
  45.100        79
  45.200        67
  45.300        86
  45.400        62
  45.500        84
  45.600        90
  45.700        75
  45.800        79
  45.900        84
  46.000        79
  46.100        68
  46.200        84
  46.300        98
  46.400       102
  46.500       141
  46.600       106
  46.700       201
  46.800       380
  46.900      2034
  47.000      1128
  47.100       533
  47.200       174
  47.300       182
  47.400       139
  47.500       144
  47.600       176
  47.700       163
  47.800       184
  47.900       210
  48.000       272
  48.100       313
  48.200       506
  48.300       967
  48.400      2237
  48.500     17609
  48.600     21815
  48.700     14280
  48.800      1664
  48.900       660
  49.000       372
  49.100       259
  49.200       237
  49.300       169
  49.400       174
  49.500       156
  49.600       144
  49.700       139
  49.800       144
  49.900       171
  50.000       219
  50.100      1102
  50.200      1043
  50.300       795
  50.400       179
  50.500       118
  50.600       100
  50.700       100
  50.800       106
  50.900        75
  51.000        96
  51.100        79
  51.200       112
  51.300        75
  51.400        90
  51.500        84
  51.600       153
  51.700       441
  51.800       237
  51.900       163
  52.000        84
  52.100        86
  52.200        77
  52.300        72
  52.400        75
  52.500        90
  52.600        90
  52.700       100
  52.800       127
  52.900       171
  53.000       216
  53.100       436
  53.200      3180
  53.300      1764
  53.400      1624
  53.500       249
  53.600       163
  53.700       121
  53.800        92
  53.900       112
  54.000       104
  54.100        92
  54.200       108
  54.300        79
  54.400       110
  54.500       110
  54.600       174
  54.700       858
  54.800       453
  54.900       436
  55.000       136
  55.100       121
  55.200        98
  55.300       100
  55.400       100
  55.500        94
  55.600       104
  55.700       110
  55.800       148
  55.900       179
  56.000       210
  56.100       712
  56.200      3147
  56.300      1296
  56.400       930
  56.500       213
  56.600       163
  56.700       158
  56.800       196
  56.900       179
  57.000       163
  57.100       201
  57.200       275
  57.300       488
  57.400       767
  57.500      1681
  57.600     14762
  57.700     10281
  57.800     10383
  57.900      1521
  58.000       552
  58.100       299
  58.200       225
  58.300       193
  58.400       169
  58.500       158
  58.600       163
  58.700       198
  58.800       256
  58.900       327
  59.000      2007
  59.100      3317
  59.200      2275
  59.300       702
  59.400       216
  59.500       156
  59.600       134
  59.700       132
  59.800       127
  59.900        98
  60.000       118
  60.100       163
  60.200       213
  60.300       256
  60.400      1681
  60.500      2809
  60.600      1681
  60.700       650
  60.800       184
  60.900       123
  61.000       108
  61.100        96
  61.200       118
  61.300        98
  61.400       100
  61.500       102
  61.600       132
  61.700       187
  61.800      1122
  61.900       823
  62.000       823
  62.100       268
  62.200       118
  62.300       104
  62.400        86
  62.500        70
  62.600        72
  62.700       106
  62.800        84
  62.900       106
  63.000       125
  63.100       213
  63.200       948
  63.300       327
  63.400       457
  63.500       121
  63.600       106
  63.700        75
  63.800        75
  63.900        62
  64.000        90
  64.100        81
  64.200       104
  64.300       153
  64.400       201
  64.500      1324
  64.600      1576
  64.700      1089
  64.800       529
  64.900       132
  65.000       104
  65.100       104
  65.200        73
  65.300        88
  65.400        82
  65.500        77
  65.600       108
  65.700       121
  65.800       342
  65.900      1095
  66.000       368
  66.100       501
  66.200       123
  66.300        84
  66.400        72
  66.500        59
  66.600        72
  66.700        70
  66.800        62
  66.900        60
  67.000        59
  67.100        77
  67.200        62
  67.300        65
  67.400        62
  67.500        72
  67.600        77
  67.700        77
  67.800        64
  67.900        57
  68.000        67
  68.100        70
  68.200        53
  68.300        67
  68.400        56
  68.500        59
  68.600        79
  68.700        70
  68.800        77
  68.900        77
  69.000        57
  69.100        72
  69.200        73
  69.300        79
  69.400        86
  69.500       110
  69.600       118
  69.700       292
  69.800      1648
  69.900       462
  70.000       829
  70.100       210
  70.200       112
  70.300       100
  70.400       102
  70.500        96
  70.600       112
  70.700       121
  70.800       158
  70.900       222
  71.000       739
  71.100      3069
  71.200       723
  71.300      1528
  71.400       282
  71.500       141
  71.600        98
  71.700        90
  71.800       100
  71.900       110
  72.000       139
  72.100       151
  72.200       222
  72.300      1183
  72.400      1989
  72.500       712
  72.600      1162
  72.700       187
  72.800       121
  72.900       114
  73.000        82
  73.100        82
  73.200       106
  73.300       102
  73.400       125
  73.500       210
  73.600      1239
  73.700       561
  73.800       552
  73.900       396
  74.000       121
  74.100        88
  74.200        92
  74.300        77
  74.400        86
  74.500       104
  74.600        98
  74.700       134
  74.800       501
  74.900      1513
  75.000       372
  75.100       795
  75.200       204
  75.300        94
  75.400        86
  75.500        88
  75.600        96
  75.700        82
  75.800        86
  75.900        94
  76.000       174
  76.100       750
  76.200       424
  76.300       357
  76.400       364
  76.500       123
  76.600        96
  76.700        90
  76.800       100
  76.900       121
  77.000       125
  77.100       144
  77.200       204
  77.300       812
  77.400      2088
  77.500       449
  77.600      1253
  77.700       324
  77.800       166
  77.900       121
  78.000       106
  78.100       127
  78.200       156
  78.300       196
  78.400       259
  78.500       784
  78.600      5112
  78.700      1466
  78.800      1866
  78.900      1560
  79.000       275
  79.100       174
  79.200       112
  79.300       114
  79.400       106
  79.500        90
  79.600       114
  79.700        98
  79.800       121
  79.900       123
  80.000       108
  80.100       136
  80.200       102
  80.300       100
  80.400        96
  80.500        92
  80.600       106
  80.700       158
  80.800       144
  80.900       275
  81.000      1288
  81.100      2840
  81.200       605
  81.300      1713
  81.400       519
  81.500       193
  81.600       129
  81.700        92
  81.800       116
  81.900        98
  82.000       100
  82.100       114
  82.200       234
  82.300       756
  82.400       219
  82.500       316
  82.600       234
  82.700       100
  82.800        62
  82.900        92
  83.000        86
  83.100       114
  83.200        96
  83.300        79
  83.400       193
  83.500       772
  83.600       295
  83.700       265
  83.800       342
  83.900       114
  84.000        88
  84.100        84
  84.200        90
  84.300       110
  84.400        96
  84.500       118
  84.600       237
  84.700      1398
  84.800       686
  84.900       349
  85.000       812
  85.100       207
  85.200       100
  85.300        92
  85.400        84
  85.500        92
  85.600        90
  85.700        88
  85.800        94
  85.900       144
  86.000       163
  86.100        84
  86.200       129
  86.300        82
  86.400        84
  86.500        88
  86.600        84
  86.700       121
  86.800       110
  86.900       132
  87.000       171
  87.100       852
  87.200      1218
  87.300       275
  87.400       784
  87.500       436
  87.600       153
  87.700       110
  87.800        75
  87.900        86
  88.000        84
  88.100        84
  88.200        92
  88.300        75
  88.400        77
  88.500        84
  88.600        92
  88.700        79
  88.800        98
  88.900        92
  89.000       104
  89.100       112
  89.200       108
  89.300       116
  89.400       176
  89.500       645
  89.600      1608
  89.700       334
  89.800       533
  89.900       696
  90.000       187
  90.100       125
  90.200       148
  90.300       132
  90.400       151
  90.500       201
  90.600       282
  90.700      1149
  90.800      3528
  90.900       729
  91.000       870
  91.100      1592
  91.200       342
  91.300       171
  91.400       146
  91.500       125
  91.600       125
  91.700       132
  91.800       161
  91.900       475
  92.000      1584
  92.100       404
  92.200       384
  92.300       852
  92.400       213
  92.500       134
  92.600       110
  92.700       112
  92.800       102
  92.900       121
  93.000       148
  93.100       282
  93.200      1004
  93.300       324
  93.400       272
  93.500       590
  93.600       196
  93.700       127
  93.800       110
  93.900        72
  94.000        90
  94.100       121
  94.200       108
  94.300       169
  94.400       600
  94.500       262
  94.600       169
  94.700       361
  94.800       166
  94.900       104
  95.000       116
  95.100       129
  95.200       116
  95.300       156
  95.400       179
  95.500       368
  95.600      2007
  95.700      1017
  95.800       334
  95.900       882
  96.000       734
  96.100       198
  96.200       129
  96.300       121
  96.400       132
  96.500       114
  96.600       123
  96.700       139
  96.800       479
  96.900       449
  97.000       151
  97.100       222
  97.200       316
  97.300       144
  97.400       136
  97.500       127
  97.600       129
  97.700       169
  97.800       190
  97.900       349
  98.000      1474
  98.100      2450
  98.200       529
  98.300       610
  98.400      1444
  98.500       436
  98.600       190
  98.700       163
  98.800       146
  98.900       134
  99.000       161
  99.100       222
  99.200       615
  99.300      2052
  99.400       492
  99.500       320
  99.600       954
  99.700       497
  99.800       187
  99.900       144
 100.000       104
 100.100        90
 100.200       106
 100.300        90
 100.400        94
 100.500        72
 100.600       102
 100.700       104
 100.800        98
 100.900        90
 101.000        94
 101.100        90
 101.200       100
 101.300       110
 101.400       106
 101.500       146
 101.600       240
 101.700      1049
 101.800      1075
 101.900       275
 102.000       299
 102.100       841
 102.200       309
 102.300       146
 102.400       121
 102.500       112
 102.600       125
 102.700       158
 102.800       213
 102.900       605
 103.000      1747
 103.100       457
 103.200       285
 103.300       645
 103.400       620
 103.500       204
 103.600       146
 103.700       116
 103.800       123
 103.900       127
 104.000       146
 104.100       243
 104.200      1176
 104.300       676
 104.400       237
 104.500       285
 104.600       635
 104.700       265
 104.800       146
 104.900       144
 105.000       129
 105.100       121
 105.200       153
 105.300       204
 105.400       585
 105.500      1513
 105.600       432
 105.700       228
 105.800       501
 105.900       610
 106.000       216
 106.100       139
 106.200       118
 106.300       112
 106.400       112
 106.500       144
 106.600       210
 106.700       948
 106.800       882
 106.900       256
 107.000       213
 107.100       580
 107.200       380
 107.300       144
 107.400       100
 107.500        94
 107.600        88
 107.700        94
 107.800        82
 107.900       100
 108.000       106
 108.100        94
 108.200        70
 108.300        88
 108.400        79
 108.500        82
 108.600        82
 108.700       104
 108.800       116
 108.900       116
 109.000       102
 109.100       198
 109.200       529
 109.300      1428
 109.400       408
 109.500       213
 109.600       368
 109.700       745
 109.800       272
 109.900       163
 110.000       125
 110.100       106
 110.200       116
 110.300       112
 110.400       144
 110.500       388
 110.600       778
 110.700       228
 110.800       139
 110.900       237
 111.000       436
 111.100       190
 111.200        96
 111.300       114
 111.400        94
 111.500        92
 111.600        92
 111.700        84
 111.800        82
 111.900        82
 112.000        79
 112.100        90
 112.200        81
 112.300        77
 112.400        86
 112.500        86
 112.600       100
 112.700        96
 112.800        98
 112.900        94
 113.000       166
 113.100       380
 113.200       750
 113.300       268
 113.400       161
 113.500       176
 113.600       445
 113.700       225
 113.800       139
 113.900       118
 114.000       118
 114.100       125
 114.200       132
 114.300       163
 114.400       457
 114.500      1260
 114.600       515
 114.700       228
 114.800       210
 114.900       524
 115.000       510
 115.100       193
 115.200       121
 115.300        98
 115.400       100
 115.500       112
 115.600       127
 115.700       174
 115.800       538
 115.900       388
 116.000       176
 116.100       136
 116.200       166
 116.300       334
 116.400       182
 116.500       102
 116.600       129
 116.700       112
 116.800       125
 116.900       141
 117.000       153
 117.100       449
 117.200      1102
 117.300       404
 117.400       210
 117.500       184
 117.600       400
 117.700       475
 117.800       210
 117.900       148
 118.000       146
 118.100       153
 118.200       161
 118.300       216
 118.400       353
 118.500      1310
 118.600      1747
 118.700       510
 118.800       259
 118.900       320
 119.000       888
 119.100       761
 119.200       256
 119.300       176
 119.400       144
 119.500       129
 119.600       102
 119.700       121
 119.800       146
 119.900       345
 120.000       376
 120.100       148
 120.200       108
 120.300       121
 120.400       219
 120.500       225
 120.600       136
 120.700       114
 120.800       112
 120.900       108
 121.000       123
 121.100       156
 121.200       252
 121.300       823
 121.400       772
 121.500       309
 121.600       163
 121.700       207
 121.800       404
 121.900       441
 122.000       259
 122.100       151
 122.200       129
 122.300       123
 122.400       141
 122.500       176
 122.600       262
 122.700       852
 122.800      1552
 122.900       566
 123.000       278
 123.100       222
 123.200       380
 123.300       789
 123.400       432
 123.500       219
 123.600       148
 123.700       146
 123.800       136
 123.900       144
 124.000       184
 124.100       353
 124.200      1004
 124.300       772
 124.400       268
 124.500       184
 124.600       196
 124.700       380
 124.800       538
 124.900       265
 125.000       174
 125.100       136
 125.200       139
 125.300       132
 125.400       153
 125.500       196
 125.600       449
 125.700      1197
 125.800       571
 125.900       240
 126.000       187
 126.100       201
 126.200       412
 126.300       519
 126.400       268
 126.500       169
 126.600       132
 126.700       132
 126.800       123
 126.900       166
 127.000       259
 127.100       595
 127.200      1568
 127.300       739
 127.400       309
 127.500       198
 127.600       237
 127.700       462
 127.800       702
 127.900       357
 128.000       216
 128.100       123
 128.200       125
 128.300       136
 128.400       132
 128.500       153
 128.600       265
 128.700       707
 128.800       660
 128.900       275
 129.000       163
 129.100       171
 129.200       193
 129.300       428
 129.400       392
 129.500       176
 129.600       148
 129.700       106
 129.800        92
 129.900       108
 130.000       112
 130.100       108
 130.200        96
 130.300       102
 130.400       112
 130.500       108
 130.600        98
 130.700       114
 130.800       110
 130.900       106
 131.000       112
 131.100       108
 131.200       121
 131.300       112
 131.400       104
 131.500       141
 131.600       179
 131.700       249
 131.800       497
 131.900      1354
 132.000       852
 132.100       342
 132.200       259
 132.300       210
 132.400       265
 132.500       510
 132.600       655
 132.700       327
 132.800       179
 132.900       148
 133.000       136
 133.100       193
 133.200       184
 133.300       222
 133.400       376
 133.500       967
 133.600      1303
 133.700       515
 133.800       278
 133.900       187
 134.000       204
 134.100       306
 134.200       670
 134.300       515
 134.400       272
 134.500       171
 134.600       148
 134.700       121
 134.800       136
 134.900       114
 135.000       158
 135.100       256
 135.200       676
 135.300       712
 135.400       388
 135.500       216
 135.600       176
 135.700       174
 135.800       240
 135.900       392
 136.000       441
 136.100       243
 136.200       176
 136.300       166
 136.400       163
 136.500       207
 136.600       196
 136.700       278
 136.800       466
 136.900      1135
 137.000      2401
 137.100      1398
 137.200       580
 137.300       338
 137.400       249
 137.500       295
 137.600       529
 137.700      1082
 137.800       870
 137.900       453
 138.000       231
 138.100       201
 138.200       179
 138.300       169
 138.400       184
 138.500       204
 138.600       231
 138.700       510
 138.800       961
 138.900       576
 139.000       275
 139.100       222
 139.200       213
 139.300       193
 139.400       216
 139.500       353
 139.600       449
 139.700       289
 139.800       163
 139.900       144
 140.000       161
 140.100       161
 140.200       184
 140.300       213
 140.400       275
 140.500       484
 140.600      1296
 140.700      1806
 140.800       864
 140.900       428
 141.000       268
 141.100       237
 141.200       240
 141.300       372
 141.400       630
 141.500       900
 141.600       552
 141.700       331
 141.800       219
 141.900       207
 142.000       198
 142.100       163
 142.200       151
 142.300       158
 142.400       252
 142.500       484
 142.600      1024
 142.700       734
 142.800       349
 142.900       216
 143.000       213
 143.100       146
 143.200       182
 143.300       240
 143.400       404
 143.500       506
 143.600       316
 143.700       204
 143.800       169
 143.900       144
 144.000       158
 144.100       163
 144.200       136
 144.300       166
 144.400       166
 144.500       275
 144.600       524
 144.700       610
 144.800       327
 144.900       204
 145.000       169
 145.100       151
 145.200       136
 145.300       169
 145.400       201
 145.500       302
 145.600       380
 145.700       231
 145.800       161
 145.900       163
 146.000       134
 146.100       134
 146.200       136
 146.300       136
 146.400       139
 146.500       176
 146.600       272
 146.700       510
 146.800       739
 146.900       501
 147.000       302
 147.100       204
 147.200       179
 147.300       171
 147.400       166
 147.500       179
 147.600       225
 147.700       331
 147.800       400
 147.900       309
 148.000       228
 148.100       176
 148.200       156
 148.300       127
 148.400       144
 148.500       148
 148.600       169
 148.700       176
 148.800       210
 148.900       292
 149.000       561
 149.100       806
 149.200       524
 149.300       309
 149.400       228
 149.500       179
 149.600       179
 149.700       158
 149.800       174
 149.900       231
 150.000       316