File: data/XRD/CPD-1B.PRN
   5.000       184
   5.100       169
   5.200       171
   5.300       169
   5.400       156
   5.500       156
   5.600       144
   5.700       141
   5.800       125
   5.900       121
   6.000       123
   6.100       123
   6.200       121
   6.300       146
   6.400       118
   6.500       129
   6.600       116
   6.700       110
   6.800       106
   6.900       114
   7.000        96
   7.100       123
   7.200        98
   7.300        90
   7.400       114
   7.500        90
   7.600        82
   7.700        96
   7.800        92
   7.900        84
   8.000        90
   8.100        94
   8.200       104
   8.300        81
   8.400       116
   8.500        92
   8.600        88
   8.700        88
   8.800        84
   8.900        67
   9.000        88
   9.100        82
   9.200        88
   9.300        77
   9.400        70
   9.500        70
   9.600        70
   9.700        65
   9.800        75
   9.900        70
  10.000        72
  10.100        67
  10.200        60
  10.300        53
  10.400        68
  10.500        72
  10.600        51
  10.700        65
  10.800        75
  10.900        72
  11.000        56
  11.100        72
  11.200        54
  11.300        59
  11.400        56
  11.500        67
  11.600        40
  11.700        44
  11.800        53
  11.900        59
  12.000        59
  12.100        56
  12.200        65
  12.300        54
  12.400        46
  12.500        62
  12.600        38
  12.700        53
  12.800        53
  12.900        50
  13.000        47
  13.100        62
  13.200        62
  13.300        53
  13.400        53
  13.500        49
  13.600        50
  13.700        51
  13.800        42
  13.900        46
  14.000        50
  14.100        47
  14.200        47
  14.300        64
  14.400        56
  14.500        53
  14.600        49
  14.700        44
  14.800        40
  14.900        47
  15.000        43
  15.100        34
  15.200        46
  15.300        40
  15.400        30
  15.500        50
  15.600        59
  15.700        47
  15.800        43
  15.900        46
  16.000        42
  16.100        44
  16.200        42
  16.300        38
  16.400        44
  16.500        34
  16.600        39
  16.700        30
  16.800        40
  16.900        43
  17.000        31
  17.100        42
  17.200        34
  17.300        32
  17.400        32
  17.500        27
  17.600        38
  17.700        33
  17.800        36
  17.900        43
  18.000        43
  18.100        26
  18.200        38
  18.300        29
  18.400        31
  18.500        34
  18.600        33
  18.700        34
  18.800        40
  18.900        30
  19.000        32
  19.100        31
  19.200        39
  19.300        23
  19.400        32
  19.500        28
  19.600        38
  19.700        47
  19.800        24
  19.900        25
  20.000        40
  20.100        37
  20.200        23
  20.300        27
  20.400        32
  20.500        37
  20.600        23
  20.700        32
  20.800        32
  20.900        40
  21.000        30
  21.100        28
  21.200        46
  21.300        16
  21.400        38
  21.500        32
  21.600        38
  21.700        34
  21.800        24
  21.900        29
  22.000        31
  22.100        29
  22.200        27
  22.300        38
  22.400        32
  22.500        29
  22.600        29
  22.700        29
  22.800        30
  22.900        28
  23.000        38
  23.100        25
  23.200        32
  23.300        33
  23.400        31
  23.500        31
  23.600        29
  23.700        22
  23.800        24
  23.900        22
  24.000        27
  24.100        30
  24.200        29
  24.300        32
  24.400        39
  24.500        46
  24.600        36
  24.700        38
  24.800        42
  24.900        47
  25.000        54
  25.100        75
  25.200       121
  25.300       268
  25.400       864
  25.500      3025
  25.600      3271
  25.700       484
  25.800       141
  25.900        75
  26.000        47
  26.100        43
  26.200        38
  26.300        38
  26.400        36
  26.500        44
  26.600        29
  26.700        26
  26.800        37
  26.900        53
  27.000        46
  27.100        28
  27.200        33
  27.300        30
  27.400        25
  27.500        38
  27.600        29
  27.700        38
  27.800        53
  27.900        43
  28.000        84
  28.100       249
  28.200       918
  28.300       806
  28.400       136
  28.500        62
  28.600        46
  28.700        30
  28.800        26
  28.900        26
  29.000        24
  29.100        28
  29.200        25
  29.300        29
  29.400        25
  29.500        29
  29.600        25
  29.700        26
  29.800        23
  29.900        22
  30.000        20
  30.100        24
  30.200        20
  30.300        22
  30.400        21
  30.500        17
  30.600        22
  30.700        31
  30.800        24
  30.900        31
  31.000        23
  31.100        31
  31.200        31
  31.300        30
  31.400        40
  31.500        50
  31.600       100
  31.700       237
  31.800       231
  31.900        84
  32.000        33
  32.100        40
  32.200        21
  32.300        30
  32.400        29
  32.500        20
  32.600        23
  32.700        30
  32.800        31
  32.900        31
  33.000        34
  33.100        27
  33.200        37
  33.300        22
  33.400        31
  33.500        34
  33.600        31
  33.700        31
  33.800        30
  33.900        38
  34.000        40
  34.100        56
  34.200        68
  34.300       125
  34.400       234
  34.500       163
  34.600       100
  34.700       139
  34.800       182
  34.900       457
  35.000      1722
  35.100      5715
  35.200      3868
  35.300       750
  35.400       216
  35.500       123
  35.600        68
  35.700        73
  35.800        67
  35.900        59
  36.000        65
  36.100       182
  36.200       462
  36.300       372
  36.400       106
  36.500        60
  36.600        39
  36.700        50
  36.800        38
  36.900        31
  37.000        37
  37.100        36
  37.200        36
  37.300        56
  37.400        94
  37.500       158
  37.600       497
  37.700      1849
  37.800      1874
  37.900       655
  38.000       125
  38.100        62
  38.200        39
  38.300        42
  38.400        38
  38.500        29
  38.600        30
  38.700        29
  38.800        26
  38.900        38
  39.000        38
  39.100        30
  39.200        29
  39.300        28
  39.400        24
  39.500        22
  39.600        19
  39.700        23
  39.800        17
  39.900        33
  40.000        31
  40.100        24
  40.200        20
  40.300        23
  40.400        27
  40.500        16
  40.600        23
  40.700        26
  40.800        30
  40.900        26
  41.000        26
  41.100        24
  41.200        22
  41.300        38
  41.400        32
  41.500        42
  41.600        51
  41.700        79
  41.800        44
  41.900        27
  42.000        36
  42.100        44
  42.200        34
  42.300        32
  42.400        50
  42.500        56
  42.600        56
  42.700        82
  42.800        81
  42.900       125
  43.000       219
  43.100       538
  43.200      1772
  43.300      5745
  43.400      4057
  43.500      1482
  43.600       309
  43.700       134
  43.800        90
  43.900        70
  44.000        50
  44.100        36
  44.200        38
  44.300        32
  44.400        43
  44.500        36
  44.600        29
  44.700        23
  44.800        24
  44.900        46
  45.000        27
  45.100        20
  45.200        36
  45.300        34
  45.400        38
  45.500        33
  45.600        29
  45.700        39
  45.800        34
  45.900        33
  46.000        54
  46.100        82
  46.200        84
  46.300        56
  46.400        38
  46.500        46
  46.600        50
  46.700        75
  46.800       176
  46.900       585
  47.000       942
  47.100       510
  47.200       132
  47.300        42
  47.400        67
  47.500       134
  47.600        84
  47.700        62
  47.800        34
  47.900        21
  48.000        27
  48.100        24
  48.200        33
  48.300        36
  48.400        24
  48.500        10
  48.600        30
  48.700        16
  48.800        16
  48.900        23
  49.000        30
  49.100        25
  49.200        25
  49.300        19
  49.400        30
  49.500        16
  49.600        22
  49.700        27
  49.800        17
  49.900        37
  50.000        29
  50.100        22
  50.200        21
  50.300        24
  50.400        16
  50.500        25
  50.600        24
  50.700        21
  50.800        30
  50.900        33
  51.000        38
  51.100        34
  51.200        26
  51.300        34
  51.400        31
  51.500        32
  51.600        38
  51.700        29
  51.800        38
  51.900        37
  52.000        38
  52.100        70
  52.200       129
  52.300       275
  52.400       846
  52.500      2510
  52.600      1747
  52.700      1062
  52.800       182
  52.900        88
  53.000        56
  53.100        53
  53.200        32
  53.300        34
  53.400        27
  53.500        44
  53.600        38
  53.700        32
  53.800        33
  53.900        30
  54.000        31
  54.100        36
  54.200        43
  54.300        21
  54.400        26
  54.500        25
  54.600        32
  54.700        33
  54.800        36
  54.900        50
  55.000        24
  55.100        31
  55.200        37
  55.300        23
  55.400        34
  55.500        51
  55.600       125
  55.700       313
  55.800       222
  55.900       169
  56.000        60
  56.100        42
  56.200        42
  56.300        42
  56.400        57
  56.500       104
  56.600       158
  56.700       144
  56.800        82
  56.900        88
  57.000       123
  57.100       184
  57.200       388
  57.300       985
  57.400      3226
  57.500      4844
  57.600      2809
  57.700      1288
  57.800       282
  57.900       132
  58.000        81
  58.100        65
  58.200        53
  58.300        46
  58.400        49
  58.500        39
  58.600        43
  58.700        42
  58.800        38
  58.900        33
  59.000        33
  59.100        38
  59.200        37
  59.300        38
  59.400        32
  59.500        50
  59.600        79
  59.700       148
  59.800       110
  59.900        68
  60.000        38
  60.100        30
  60.200        27
  60.300        28
  60.400        32
  60.500        29
  60.600        30
  60.700        37
  60.800        38
  60.900        70
  61.000       125
  61.100       246
  61.200       331
  61.300       457
  61.400       252
  61.500       182
  61.600        53
  61.700        36
  61.800        27
  61.900        36
  62.000        32
  62.100        26
  62.200        25
  62.300        24
  62.400        27
  62.500        28
  62.600        34
  62.700        56
  62.800       121
  62.900        86
  63.000        77
  63.100        38
  63.200        30
  63.300        21
  63.400        29
  63.500        23
  63.600        30
  63.700        16
  63.800        22
  63.900        28
  64.000        21
  64.100        23
  64.200        22
  64.300        32
  64.400        30
  64.500        25
  64.600        25
  64.700        21
  64.800        25
  64.900        31
  65.000        32
  65.100        32
  65.200        32
  65.300        31
  65.400        44
  65.500        32
  65.600        37
  65.700        37
  65.800        39
  65.900        56
  66.000        49
  66.100       108
  66.200       163
  66.300       342
  66.400       973
  66.500      1918
  66.600       954
  66.700       852
  66.800       213
  66.900        84
  67.000        56
  67.100        50
  67.200        59
  67.300        51
  67.400        59
  67.500        50
  67.600        67
  67.700        84
  67.800       144
  67.900       285
  68.000       529
  68.100      1624
  68.200      2631
  68.300      1267
  68.400      1288
  68.500       342
  68.600       237
  68.700       123
  68.800       110
  68.900        75
  69.000        86
  69.100        75
  69.200        53
  69.300        59
  69.400        36
  69.500        38
  69.600        32
  69.700        24
  69.800        32
  69.900        27
  70.000        23
  70.100        32
  70.200        31
  70.300        65
  70.400        88
  70.500        64
  70.600        43
  70.700        38
  70.800        29
  70.900        17
  71.000        25
  71.100        20
  71.200        27
  71.300        22
  71.400        27
  71.500        33
  71.600        21
  71.700        25
  71.800        24
  71.900        19
  72.000        25
  72.100        17
  72.200        19
  72.300        21
  72.400        28
  72.500        28
  72.600        37
  72.700        23
  72.800        26
  72.900        28
  73.000        16
  73.100        20
  73.200        24
  73.300        25
  73.400        29
  73.500        24
  73.600        28
  73.700        28
  73.800        28
  73.900        28
  74.000        37
  74.100        32
  74.200        77
  74.300        90
  74.400        47
  74.500        65
  74.600        33
  74.700        25
  74.800        32
  74.900        26
  75.000        16
  75.100        16
  75.200        32
  75.300        28
  75.400        27
  75.500        23
  75.600        28
  75.700        70
  75.800       118
  75.900        70
  76.000        72
  76.100        60
  76.200        32
  76.300        43
  76.400        43
  76.500        75
  76.600       116
  76.700       272
  76.800       650
  76.900       718
  77.000       497
  77.100       625
  77.200       571
  77.300       282
  77.400       240
  77.500       161
  77.600        47
  77.700        50
  77.800        24
  77.900        33
  78.000        32
  78.100        29
  78.200        40
  78.300        27
  78.400        28
  78.500        26
  78.600        33
  78.700        20
  78.800        29
  78.900        28
  79.000        22
  79.100        20
  79.200         7
  79.300        24
  79.400        25
  79.500        30
  79.600        16
  79.700        20
  79.800        17
  79.900        20
  80.000        29
  80.100        24
  80.200        34
  80.300        49
  80.400        90
  80.500        92
  80.600       190
  80.700       295
  80.800       108
  80.900       190
  81.000        94
  81.100        31
  81.200        33
  81.300        26
  81.400        26
  81.500        20
  81.600        20
  81.700        29
  81.800        16
  81.900        21
  82.000        30
  82.100        20
  82.200        26
  82.300        17
  82.400        17
  82.500        13
  82.600        20
  82.700        16
  82.800        24
  82.900        22
  83.000        33
  83.100        37
  83.200        57
  83.300        46
  83.400        34
  83.500        31
  83.600        23
  83.700        31
  83.800        22
  83.900        28
  84.000        42
  84.100        47
  84.200       100
  84.300       231
  84.400       176
  84.500       106
  84.600       132
  84.700        59
  84.800        28
  84.900        20
  85.000        24
  85.100        38
  85.200        25
  85.300        17
  85.400        30
  85.500        16
  85.600        20
  85.700        22
  85.800        36
  85.900        27
  86.000        30
  86.100        49
  86.200        94
  86.300       210
  86.400       201
  86.500       204
  86.600       153
  86.700       102
  86.800        60
  86.900        44
  87.000        34
  87.100        49
  87.200        62
  87.300       148
  87.400       148
  87.500        51
  87.600       121
  87.700        72
  87.800        46
  87.900        28
  88.000        29
  88.100        28
  88.200        23
  88.300        28
  88.400        25
  88.500        30
  88.600        34
  88.700        59
  88.800       123
  88.900       262
  89.000       349
  89.100       174
  89.200       182
  89.300       163
  89.400        67
  89.500        65
  89.600        62
  89.700        38
  89.800        42
  89.900        42
  90.000        29
  90.100        38
  90.200        16
  90.300        28
  90.400        33
  90.500        44
  90.600        98
  90.700       106
  90.800        75
  90.900       100
  91.000       184
  91.100       295
  91.200       345
  91.300       151
  91.400       184
  91.500       184
  91.600        68
  91.700        38
  91.800        29
  91.900        19
  92.000        12
  92.100        17
  92.200        26
  92.300        23
  92.400        16
  92.500        23
  92.600        30
  92.700        34
  92.800        39
  92.900        22
  93.000        16
  93.100        23
  93.200        23
  93.300        26
  93.400        13
  93.500        24
  93.600        16
  93.700        20
  93.800        25
  93.900        31
  94.000        36
  94.100        60
  94.200        86
  94.300        47
  94.400        51
  94.500        51
  94.600        44
  94.700        38
  94.800        75
  94.900        86
  95.000       139
  95.100       342
  95.200       750
  95.300       524
  95.400       262
  95.500       400
  95.600       302
  95.700        96
  95.800        50
  95.900        30
  96.000        38
  96.100        34
  96.200        28
  96.300        19
  96.400        23
  96.500        26
  96.600        21
  96.700        21
  96.800        25
  96.900        22
  97.000        25
  97.100        17
  97.200        20
  97.300        21
  97.400        15
  97.500        15
  97.600        24
  97.700        26
  97.800        28
  97.900        16
  98.000        21
  98.100        24
  98.200        50
  98.300        96
  98.400        92
  98.500        50
  98.600        73
  98.700        75
  98.800        43
  98.900        29
  99.000        23
  99.100        28
  99.200        26
  99.300        13
  99.400        17
  99.500        23
  99.600        17
  99.700        30
  99.800        12
  99.900        16
 100.000        28
 100.100        29
 100.200        25
 100.300        33
 100.400        33
 100.500        38
 100.600        50
 100.700        70
 100.800        90
 100.900       179
 101.000       441
 101.100       580
 101.200       193
 101.300       222
 101.400       292
 101.500       187
 101.600        43
 101.700        40
 101.800        43
 101.900        23
 102.000        19
 102.100        17
 102.200        30
 102.300        20
 102.400        20
 102.500        28
 102.600        26
 102.700        30
 102.800        43
 102.900        42
 103.000        38
 103.100        47
 103.200        77
 103.300       132
 103.400        67
 103.500        46
 103.600        60
 103.700        70
 103.800        30
 103.900        27
 104.000        29
 104.100        36
 104.200        29
 104.300        30
 104.400        28
 104.500        32
 104.600        28
 104.700        33
 104.800        29
 104.900        22
 105.000        29
 105.100        21
 105.200        22
 105.300        26
 105.400        33
 105.500        32
 105.600        29
 105.700        54
 105.800        60
 105.900        43
 106.000        38
 106.100        30
 106.200        38
 106.300        28
 106.400        24
 106.500        20
 106.600        23
 106.700        19
 106.800        22
 106.900        19
 107.000        16
 107.100        15
 107.200        29
 107.300        20
 107.400        23
 107.500        20
 107.600        17
 107.700        21
 107.800        21
 107.900        26
 108.000        24
 108.100        22
 108.200        20
 108.300        13
 108.400        22
 108.500        13
 108.600        17
 108.700        20
 108.800        22
 108.900        24
 109.000        20
 109.100        12
 109.200        27
 109.300        34
 109.400        30
 109.500        37
 109.600        34
 109.700        36
 109.800        37
 109.900        46
 110.000        40
 110.100        24
 110.200        31
 110.300        22
 110.400        51
 110.500        29
 110.600        47
 110.700        50
 110.800        70
 110.900       153
 111.000       153
 111.100        79
 111.200        81
 111.300        70
 111.400       110
 111.500        59
 111.600        43
 111.700        30
 111.800        17
 111.900        21
 112.000        24
 112.100        22
 112.200        16
 112.300        21
 112.400        32
 112.500        25
 112.600        26
 112.700        29
 112.800        46
 112.900        59
 113.000        73
 113.100        72
 113.200        37
 113.300        36
 113.400        43
 113.500        43
 113.600        36
 113.700        37
 113.800        42
 113.900        67
 114.000       134
 114.100       121
 114.200        79
 114.300        47
 114.400        50
 114.500        81
 114.600        53
 114.700        39
 114.800        32
 114.900        23
 115.000        29
 115.100        31
 115.200        32
 115.300        44
 115.400        42
 115.500        42
 115.600        53
 115.700        57
 115.800        90
 115.900       166
 116.000       349
 116.100       538
 116.200       306
 116.300       210
 116.400       198
 116.500       368
 116.600       404
 116.700       204
 116.800       136
 116.900        94
 117.000       129
 117.100       123
 117.200        75
 117.300        43
 117.400        32
 117.500        51
 117.600        72
 117.700       136
 117.800       282
 117.900       237
 118.000       112
 118.100        70
 118.200       106
 118.300       198
 118.400       144
 118.500        64
 118.600        32
 118.700        30
 118.800        40
 118.900        28
 119.000        22
 119.100        31
 119.200        21
 119.300        27
 119.400        37
 119.500        24
 119.600        20
 119.700        19
 119.800        19
 119.900        26
 120.000        39
 120.100        40
 120.200        50
 120.300        40
 120.400        25
 120.500        24
 120.600        33
 120.700        28
 120.800        29
 120.900        25
 121.000        21
 121.100        26
 121.200        23
 121.300        29
 121.400        26
 121.500        39
 121.600        43
 121.700        67
 121.800        59
 121.900       100
 122.000       187
 122.100       169
 122.200        82
 122.300        57
 122.400        64
 122.500       118
 122.600        96
 122.700        54
 122.800        36
 122.900        28
 123.000        22
 123.100        28
 123.200        23
 123.300        37
 123.400        28
 123.500        27
 123.600        24
 123.700        26
 123.800        23
 123.900        25
 124.000        31
 124.100        25
 124.200        27
 124.300        30
 124.400        56
 124.500        82
 124.600       118
 124.700        92
 124.800        49
 124.900        50
 125.000        57
 125.100        72
 125.200        77
 125.300        38
 125.400        43
 125.500        36
 125.600        34
 125.700        32
 125.800        37
 125.900        47
 126.000        67
 126.100       100
 126.200       110
 126.300        56
 126.400        46
 126.500        47
 126.600        44
 126.700        67
 126.800        72
 126.900        47
 127.000        43
 127.100        42
 127.200        75
 127.300        94
 127.400       129
 127.500       201
 127.600       436
 127.700       645
 127.800       364
 127.900       187
 128.000       132
 128.100       176
 128.200       246
 128.300       299
 128.400       213
 128.500        86
 128.600        62
 128.700        47
 128.800        38
 128.900        40
 129.000        28
 129.100        44
 129.200        50
 129.300        30
 129.400        43
 129.500        49
 129.600        56
 129.700        90
 129.800       187
 129.900       268
 130.000       153
 130.100       100
 130.200        92
 130.300        86
 130.400       116
 130.500       134
 130.600       134
 130.700        79
 130.800        70
 130.900       108
 131.000       182
 131.100       282
 131.200       196
 131.300       118
 131.400        73
 131.500        82
 131.600       102
 131.700       139
 131.800       121
 131.900        88
 132.000        64
 132.100        62
 132.200        53
 132.300        59
 132.400        47
 132.500        47
 132.600        42
 132.700        46
 132.800        38
 132.900        42
 133.000        36
 133.100        19
 133.200        36
 133.300        36
 133.400        39
 133.500        32
 133.600        33
 133.700        33
 133.800        32
 133.900        43
 134.000        47
 134.100        24
 134.200        43
 134.300        38
 134.400        25
 134.500        28
 134.600        32
 134.700        37
 134.800        47
 134.900        50
 135.000        51
 135.100        68
 135.200        88
 135.300        60
 135.400        51
 135.500        75
 135.600        98
 135.700       123
 135.800       213
 135.900       334
 136.000       686
 136.100       924
 136.200       561
 136.300       299
 136.400       204
 136.500       153
 136.600       213
 136.700       334
 136.800       445
 136.900       302
 137.000       171
 137.100        94
 137.200        75
 137.300        53
 137.400        51
 137.500        36
 137.600        46
 137.700        42
 137.800        40
 137.900        28
 138.000        36
 138.100        43
 138.200        32
 138.300        32
 138.400        38
 138.500        47
 138.600        36
 138.700        39
 138.800        32
 138.900        30
 139.000        34
 139.100        40
 139.200        36
 139.300        42
 139.400        42
 139.500        32
 139.600        33
 139.700        27
 139.800        20
 139.900        24
 140.000        32
 140.100        36
 140.200        43
 140.300        32
 140.400        28
 140.500        30
 140.600        25
 140.700        27
 140.800        47
 140.900        37
 141.000        47
 141.100        47
 141.200        44
 141.300        39
 141.400        42
 141.500        28
 141.600        40
 141.700        47
 141.800        56
 141.900        47
 142.000        54
 142.100        67
 142.200        90
 142.300       141
 142.400       144
 142.500        94
 142.600        56
 142.700        46
 142.800        53
 142.900        67
 143.000        67
 143.100        96
 143.200       123
 143.300        70
 143.400        59
 143.500        42
 143.600        40
 143.700        38
 143.800        47
 143.900        38
 144.000        34
 144.100        32
 144.200        38
 144.300        40
 144.400        38
 144.500        42
 144.600        38
 144.700        62
 144.800        94
 144.900       112
 145.000       156
 145.100       278
 145.200       416
 145.300       299
 145.400       201
 145.500       114
 145.600        90
 145.700        72
 145.800        98
 145.900        92
 146.000       153
 146.100       219
 146.200       176
 146.300       114
 146.400        86
 146.500        62
 146.600        64
 146.700        50
 146.800        40
 146.900        29
 147.000        26
 147.100        37
 147.200        38
 147.300        31
 147.400        36
 147.500        32
 147.600        34
 147.700        25
 147.800        43
 147.900        47
 148.000        42
 148.100        59
 148.200        36
 148.300        50
 148.400        46
 148.500        68
 148.600        51
 148.700        59
 148.800        72
 148.900        96
 149.000       136
 149.100       174
 149.200       275
 149.300       246
 149.400       169
 149.500       144
 149.600       125
 149.700       144
 149.800       153
 149.900       204
 150.000       353