File: data/XRD/FLUORITE.PRN
   5.000       151
   5.100       112
   5.200       158
   5.300       141
   5.400       127
   5.500       132
   5.600       123
   5.700       121
   5.800       118
   5.900       132
   6.000       112
   6.100       114
   6.200       123
   6.300        96
   6.400       106
   6.500       100
   6.600       102
   6.700        98
   6.800        94
   6.900       112
   7.000        88
   7.100        77
   7.200       102
   7.300        86
   7.400        94
   7.500        86
   7.600        96
   7.700        86
   7.800        81
   7.900        82
   8.000        81
   8.100        70
   8.200        86
   8.300        79
   8.400        70
   8.500        84
   8.600        90
   8.700        65
   8.800        62
   8.900        84
   9.000        73
   9.100        62
   9.200        79
   9.300        75
   9.400        77
   9.500        75
   9.600        75
   9.700        81
   9.800        59
   9.900        65
  10.000        64
  10.100        56
  10.200        67
  10.300        56
  10.400        57
  10.500        62
  10.600        65
  10.700        54
  10.800        59
  10.900        60
  11.000        62
  11.100        62
  11.200        51
  11.300        70
  11.400        64
  11.500        50
  11.600        44
  11.700        47
  11.800        62
  11.900        51
  12.000        40
  12.100        47
  12.200        47
  12.300        39
  12.400        46
  12.500        47
  12.600        47
  12.700        47
  12.800        47
  12.900        38
  13.000        32
  13.100        42
  13.200        36
  13.300        39
  13.400        49
  13.500        50
  13.600        37
  13.700        32
  13.800        53
  13.900        43
  14.000        56
  14.100        28
  14.200        42
  14.300        42
  14.400        44
  14.500        36
  14.600        32
  14.700        38
  14.800        44
  14.900        38
  15.000        37
  15.100        42
  15.200        43
  15.300        38
  15.400        46
  15.500        23
  15.600        38
  15.700        26
  15.800        37
  15.900        34
  16.000        40
  16.100        37
  16.200        38
  16.300        30
  16.400        29
  16.500        38
  16.600        29
  16.700        30
  16.800        32
  16.900        29
  17.000        26
  17.100        25
  17.200        42
  17.300        29
  17.400        31
  17.500        31
  17.600        31
  17.700        16
  17.800        20
  17.900        38
  18.000        32
  18.100        26
  18.200        38
  18.300        32
  18.400        26
  18.500        20
  18.600        29
  18.700        31
  18.800        21
  18.900        27
  19.000        25
  19.100        26
  19.200        29
  19.300        30
  19.400        20
  19.500        32
  19.600        27
  19.700        20
  19.800        22
  19.900        24
  20.000        23
  20.100        25
  20.200        19
  20.300        30
  20.400        24
  20.500        21
  20.600        25
  20.700        25
  20.800        24
  20.900        29
  21.000        20
  21.100        22
  21.200        20
  21.300        28
  21.400        23
  21.500        19
  21.600        27
  21.700        28
  21.800        16
  21.900        23
  22.000        22
  22.100        13
  22.200        23
  22.300        31
  22.400        22
  22.500        26
  22.600        17
  22.700        17
  22.800        30
  22.900        16
  23.000        26
  23.100        15
  23.200        17
  23.300        27
  23.400        20
  23.500        22
  23.600        24
  23.700        22
  23.800        32
  23.900        22
  24.000        16
  24.100        27
  24.200        21
  24.300        12
  24.400        16
  24.500        22
  24.600        19
  24.700        19
  24.800        23
  24.900        26
  25.000        16
  25.100        27
  25.200        20
  25.300        21
  25.400        31
  25.500        38
  25.600        27
  25.700        19
  25.800        26
  25.900        12
  26.000        16
  26.100        20
  26.200        28
  26.300        23
  26.400        20
  26.500        25
  26.600        24
  26.700        17
  26.800        17
  26.900        21
  27.000        30
  27.100        36
  27.200        27
  27.300        30
  27.400        32
  27.500        29
  27.600        60
  27.700        65
  27.800        88
  27.900       125
  28.000       246
  28.100       784
  28.200      4160
  28.300      9604
  28.400      2143
  28.500       275
  28.600       114
  28.700        77
  28.800        43
  28.900        44
  29.000        32
  29.100        46
  29.200        31
  29.300        16
  29.400        26
  29.500        27
  29.600        26
  29.700        29
  29.800        16
  29.900        12
  30.000        17
  30.100        16
  30.200        23
  30.300        12
  30.400        24
  30.500        21
  30.600        16
  30.700        20
  30.800        16
  30.900        20
  31.000        12
  31.100        25
  31.200        22
  31.300        13
  31.400        10
  31.500        16
  31.600        12
  31.700        16
  31.800        16
  31.900        20
  32.000        19
  32.100        12
  32.200        19
  32.300        10
  32.400        13
  32.500        16
  32.600        21
  32.700        38
  32.800        50
  32.900        23
  33.000        24
  33.100        16
  33.200        12
  33.300        13
  33.400        16
  33.500        20
  33.600        10
  33.700        12
  33.800        15
  33.900        15
  34.000        25
  34.100        20
  34.200        13
  34.300        19
  34.400        15
  34.500        13
  34.600        15
  34.700        12
  34.800        13
  34.900        17
  35.000        16
  35.100        20
  35.200        20
  35.300        12
  35.400        21
  35.500        26
  35.600        15
  35.700         7
  35.800        19
  35.900        22
  36.000        16
  36.100        12
  36.200        16
  36.300        12
  36.400        12
  36.500        10
  36.600        19
  36.700        13
  36.800        12
  36.900        16
  37.000        15
  37.100        19
  37.200        12
  37.300        10
  37.400        19
  37.500        19
  37.600        17
  37.700        13
  37.800        19
  37.900        10
  38.000        27
  38.100         7
  38.200        15
  38.300        12
  38.400        13
  38.500        15
  38.600        19
  38.700        16
  38.800        19
  38.900        15
  39.000        12
  39.100        16
  39.200        10
  39.300        12
  39.400        12
  39.500        12
  39.600        16
  39.700        15
  39.800        16
  39.900        10
  40.000        21
  40.100        10
  40.200        15
  40.300        10
  40.400        12
  40.500        16
  40.600        15
  40.700        15
  40.800        17
  40.900        13
  41.000        13
  41.100        12
  41.200        12
  41.300        13
  41.400        13
  41.500        17
  41.600        13
  41.700        13
  41.800        19
  41.900        13
  42.000        16
  42.100        19
  42.200        28
  42.300        20
  42.400        15
  42.500        20
  42.600        15
  42.700         7
  42.800        16
  42.900        20
  43.000        10
  43.100        23
  43.200        10
  43.300        19
  43.400        10
  43.500        22
  43.600        16
  43.700        16
  43.800        16
  43.900        22
  44.000        12
  44.100        27
  44.200        19
  44.300        22
  44.400        25
  44.500        21
  44.600        16
  44.700        26
  44.800        21
  44.900        33
  45.000        27
  45.100        26
  45.200        25
  45.300        21
  45.400        31
  45.500        30
  45.600        34
  45.700        37
  45.800        40
  45.900        36
  46.000        37
  46.100        56
  46.200        54
  46.300        57
  46.400        70
  46.500        90
  46.600       129
  46.700       193
  46.800       466
  46.900      1764
  47.000     10120
  47.100      5700
  47.200      1780
  47.300       357
  47.400       163
  47.500        84
  47.600        64
  47.700        53
  47.800        39
  47.900        38
  48.000        38
  48.100        29
  48.200        38
  48.300        38
  48.400        29
  48.500        30
  48.600        28
  48.700        20
  48.800        15
  48.900        29
  49.000        19
  49.100        19
  49.200        20
  49.300        20
  49.400        17
  49.500        20
  49.600        22
  49.700        21
  49.800        10
  49.900        12
  50.000        21
  50.100        15
  50.200        21
  50.300        15
  50.400        13
  50.500        12
  50.600        16
  50.700        16
  50.800        15
  50.900        20
  51.000        22
  51.100        10
  51.200        19
  51.300        20
  51.400        12
  51.500        17
  51.600        24
  51.700        12
  51.800        19
  51.900        16
  52.000        19
  52.100        10
  52.200        17
  52.300        16
  52.400        16
  52.500        23
  52.600        15
  52.700        10
  52.800        25
  52.900        20
  53.000        16
  53.100        15
  53.200        22
  53.300        16
  53.400        24
  53.500        17
  53.600         5
  53.700        12
  53.800        17
  53.900        17
  54.000        20
  54.100        24
  54.200        12
  54.300        20
  54.400        16
  54.500        20
  54.600        12
  54.700        20
  54.800        16
  54.900        27
  55.000        30
  55.100        27
  55.200        36
  55.300        42
  55.400        54
  55.500       104
  55.600       249
  55.700      1466
  55.800      2550
  55.900      1632
  56.000       462
  56.100       102
  56.200        68
  56.300        33
  56.400        29
  56.500        19
  56.600        22
  56.700        15
  56.800        20
  56.900        26
  57.000        26
  57.100        12
  57.200        13
  57.300        16
  57.400        13
  57.500        10
  57.600        15
  57.700        12
  57.800        20
  57.900         7
  58.000        25
  58.100        16
  58.200        15
  58.300        19
  58.400        25
  58.500        36
  58.600        20
  58.700        26
  58.800        19
  58.900        10
  59.000        17
  59.100        13
  59.200        10
  59.300        17
  59.400         5
  59.500        10
  59.600        12
  59.700        12
  59.800        12
  59.900        16
  60.000        13
  60.100        12
  60.200        15
  60.300        16
  60.400         9
  60.500        10
  60.600         7
  60.700         9
  60.800         7
  60.900        13
  61.000        12
  61.100         7
  61.200         9
  61.300        12
  61.400        10
  61.500        15
  61.600        16
  61.700        12
  61.800        15
  61.900        10
  62.000         1
  62.100        12
  62.200        12
  62.300         7
  62.400        12
  62.500        12
  62.600         9
  62.700        15
  62.800         6
  62.900        12
  63.000         9
  63.100        12
  63.200         9
  63.300        12
  63.400        12
  63.500        13
  63.600         2
  63.700         7
  63.800        13
  63.900         6
  64.000        12
  64.100        10
  64.200        16
  64.300        12
  64.400        12
  64.500         6
  64.600        12
  64.700         7
  64.800        15
  64.900         4
  65.000        12
  65.100        12
  65.200         7
  65.300        13
  65.400         9
  65.500         9
  65.600         9
  65.700         7
  65.800        12
  65.900        16
  66.000         4
  66.100        10
  66.200        12
  66.300        12
  66.400        13
  66.500        10
  66.600        10
  66.700        10
  66.800        10
  66.900        12
  67.000        16
  67.100        16
  67.200        10
  67.300        20
  67.400        12
  67.500        19
  67.600        15
  67.700        16
  67.800        15
  67.900        24
  68.000        10
  68.100        16
  68.200        28
  68.300        50
  68.400        46
  68.500        82
  68.600       524
  68.700       894
  68.800       353
  68.900       428
  69.000        75
  69.100        33
  69.200        25
  69.300        15
  69.400        16
  69.500        12
  69.600        12
  69.700        13
  69.800        10
  69.900        15
  70.000        13
  70.100        15
  70.200        10
  70.300        16
  70.400        13
  70.500        17
  70.600        13
  70.700         9
  70.800        10
  70.900         9
  71.000         7
  71.100        10
  71.200        12
  71.300        12
  71.400        13
  71.500         2
  71.600        19
  71.700        12
  71.800        15
  71.900         6
  72.000        10
  72.100        12
  72.200        10
  72.300        10
  72.400        12
  72.500         7
  72.600         6
  72.700        10
  72.800        12
  72.900        12
  73.000        12
  73.100         6
  73.200         9
  73.300        10
  73.400        10
  73.500        12
  73.600         7
  73.700        10
  73.800        16
  73.900        12
  74.000        10
  74.100        16
  74.200        12
  74.300        12
  74.400         7
  74.500        15
  74.600        12
  74.700        12
  74.800        16
  74.900        10
  75.000        12
  75.100        15
  75.200        15
  75.300        21
  75.400        21
  75.500        33
  75.600        59
  75.700       134
  75.800       670
  75.900       590
  76.000       342
  76.100       424
  76.200        90
  76.300        43
  76.400        23
  76.500        19
  76.600        16
  76.700        19
  76.800        20
  76.900        13
  77.000        12
  77.100        12
  77.200        13
  77.300        16
  77.400        10
  77.500        12
  77.600        13
  77.700        13
  77.800        16
  77.900        19
  78.000        24
  78.100        42
  78.200        88
  78.300        26
  78.400        59
  78.500        22
  78.600        19
  78.700        10
  78.800        10
  78.900        12
  79.000        10
  79.100        10
  79.200         5
  79.300         5
  79.400        12
  79.500        12
  79.600        12
  79.700        10
  79.800         6
  79.900        16
  80.000        12
  80.100         6
  80.200        16
  80.300        12
  80.400        15
  80.500         9
  80.600        10
  80.700        12
  80.800         9
  80.900        12
  81.000         9
  81.100         4
  81.200        10
  81.300        10
  81.400         9
  81.500        12
  81.600         5
  81.700        13
  81.800        10
  81.900         9
  82.000         7
  82.100        12
  82.200        19
  82.300         6
  82.400         5
  82.500         9
  82.600        12
  82.700        17
  82.800        12
  82.900         5
  83.000        10
  83.100        16
  83.200        12
  83.300        10
  83.400        10
  83.500        16
  83.600        12
  83.700        12
  83.800        12
  83.900        10
  84.000        10
  84.100         6
  84.200        12
  84.300        17
  84.400         6
  84.500        16
  84.600        10
  84.700         6
  84.800        10
  84.900        16
  85.000         4
  85.100        12
  85.200        15
  85.300         7
  85.400        16
  85.500        12
  85.600        17
  85.700        13
  85.800        16
  85.900        16
  86.000        15
  86.100        21
  86.200        12
  86.300        22
  86.400        19
  86.500        12
  86.600        15
  86.700        24
  86.800        33
  86.900        43
  87.000        70
  87.100        84
  87.200       176
  87.300       729
  87.400      1544
  87.500       475
  87.600       590
  87.700       620
  87.800       151
  87.900        59
  88.000        37
  88.100        30
  88.200        27
  88.300        33
  88.400        21
  88.500        16
  88.600        21
  88.700        16
  88.800        20
  88.900        13
  89.000        19
  89.100        15
  89.200        22
  89.300        13
  89.400        10
  89.500        12
  89.600        12
  89.700        16
  89.800         7
  89.900        12
  90.000        13
  90.100        10
  90.200        16
  90.300        10
  90.400        15
  90.500        10
  90.600         7
  90.700         6
  90.800        10
  90.900        12
  91.000        10
  91.100        15
  91.200        17
  91.300        15
  91.400        15
  91.500        10
  91.600        12
  91.700        15
  91.800        16
  91.900        12
  92.000        10
  92.100        21
  92.200        16
  92.300         7
  92.400        10
  92.500        20
  92.600         0
  92.700        15
  92.800        15
  92.900        13
  93.000        12
  93.100         7
  93.200        12
  93.300        12
  93.400        16
  93.500        21
  93.600        19
  93.700        16
  93.800        21
  93.900        43
  94.000        59
  94.100       184
  94.200       576
  94.300       292
  94.400       125
  94.500       299
  94.600       176
  94.700        51
  94.800        24
  94.900        28
  95.000        17
  95.100        16
  95.200        23
  95.300        16
  95.400        12
  95.500        12
  95.600        16
  95.700        10
  95.800        12
  95.900        10
  96.000        10
  96.100        15
  96.200        10
  96.300        15
  96.400        13
  96.500        10
  96.600        16
  96.700         4
  96.800        10
  96.900        12
  97.000        10
  97.100        20
  97.200         7
  97.300        16
  97.400         9
  97.500        12
  97.600         7
  97.700         6
  97.800        10
  97.900        16
  98.000         9
  98.100         5
  98.200         7
  98.300         6
  98.400         5
  98.500        12
  98.600        12
  98.700        10
  98.800        13
  98.900         9
  99.000         7
  99.100        16
  99.200         2
  99.300        10
  99.400         7
  99.500         7
  99.600         9
  99.700         9
  99.800         9
  99.900        12
 100.000         4
 100.100         7
 100.200        10
 100.300        13
 100.400         6
 100.500        12
 100.600        10
 100.700         9
 100.800         2
 100.900        10
 101.000         9
 101.100        15
 101.200        15
 101.300        12
 101.400         7
 101.500         9
 101.600        10
 101.700        10
 101.800        13
 101.900         9
 102.000        12
 102.100         7
 102.200         5
 102.300         5
 102.400        10
 102.500        13
 102.600        15
 102.700         6
 102.800         7
 102.900        10
 103.000        12
 103.100        17
 103.200         4
 103.300        12
 103.400        10
 103.500        10
 103.600         7
 103.700        16
 103.800        17
 103.900        12
 104.000         7
 104.100        12
 104.200        16
 104.300         2
 104.400        13
 104.500         4
 104.600        12
 104.700        10
 104.800        12
 104.900        10
 105.000        17
 105.100        23
 105.200        21
 105.300        17
 105.400        32
 105.500        38
 105.600        56
 105.700       174
 105.800       404
 105.900       210
 106.000       112
 106.100       141
 106.200       213
 106.300        96
 106.400        40
 106.500        26
 106.600        17
 106.700        23
 106.800        10
 106.900        15
 107.000        16
 107.100        15
 107.200        10
 107.300        16
 107.400        13
 107.500         7
 107.600        10
 107.700        10
 107.800        12
 107.900        16
 108.000        12
 108.100        21
 108.200        12
 108.300        12
 108.400        13
 108.500        15
 108.600        22
 108.700         7
 108.800        13
 108.900         9
 109.000        12
 109.100        16
 109.200        12
 109.300        12
 109.400        16
 109.500        20
 109.600        12
 109.700        13
 109.800        20
 109.900        10
 110.000        16
 110.100         9
 110.200         9
 110.300        12
 110.400        12
 110.500        13
 110.600        17
 110.700        10
 110.800         7
 110.900        10
 111.000        16
 111.100        12
 111.200         5
 111.300        23
 111.400        19
 111.500        12
 111.600        17
 111.700        12
 111.800        16
 111.900        17
 112.000        22
 112.100        27
 112.200        21
 112.300        17
 112.400        30
 112.500        29
 112.600        31
 112.700        53
 112.800        65
 112.900       144
 113.000       416
 113.100       519
 113.200       219
 113.300       134
 113.400       196
 113.500       282
 113.600       151
 113.700        57
 113.800        37
 113.900        21
 114.000        21
 114.100        21
 114.200        17
 114.300        26
 114.400        16
 114.500         9
 114.600        15
 114.700        10
 114.800        22
 114.900        15
 115.000        17
 115.100        15
 115.200        12
 115.300        22
 115.400        30
 115.500        56
 115.600        67
 115.700        38
 115.800        32
 115.900        36
 116.000        33
 116.100        40
 116.200        13
 116.300        16
 116.400        12
 116.500        12
 116.600        17
 116.700        10
 116.800        21
 116.900        16
 117.000        15
 117.100        19
 117.200        12
 117.300        24
 117.400        20
 117.500        16
 117.600        17
 117.700        16
 117.800        10
 117.900        16
 118.000        15
 118.100        12
 118.200        20
 118.300        13
 118.400        12
 118.500        12
 118.600        13
 118.700        16
 118.800        16
 118.900        16
 119.000        10
 119.100        15
 119.200        13
 119.300        12
 119.400        13
 119.500         9
 119.600        13
 119.700        12
 119.800        10
 119.900        10
 120.000        12
 120.100        16
 120.200        13
 120.300        10
 120.400        10
 120.500        17
 120.600        10
 120.700        12
 120.800        10
 120.900        19
 121.000        12
 121.100        10
 121.200        13
 121.300         2
 121.400        22
 121.500        21
 121.600        15
 121.700         9
 121.800        16
 121.900        12
 122.000         7
 122.100        15
 122.200        21
 122.300        12
 122.400        16
 122.500        15
 122.600        10
 122.700        12
 122.800        10
 122.900         9
 123.000        16
 123.100        15
 123.200        13
 123.300        13
 123.400        12
 123.500        12
 123.600        15
 123.700        13
 123.800        17
 123.900        16
 124.000        16
 124.100        12
 124.200        23
 124.300        16
 124.400        12
 124.500        16
 124.600        13
 124.700        21
 124.800        19
 124.900         6
 125.000        21
 125.100        22
 125.200        30
 125.300        27
 125.400        27
 125.500        26
 125.600        38
 125.700        44
 125.800        59
 125.900        81
 126.000       171
 126.100       396
 126.200       655
 126.300       392
 126.400       179
 126.500       121
 126.600       141
 126.700       285
 126.800       289
 126.900       163
 127.000        72
 127.100        56
 127.200        17
 127.300        24
 127.400        20
 127.500        26
 127.600        16
 127.700        21
 127.800        20
 127.900        22
 128.000        17
 128.100        17
 128.200        23
 128.300        19
 128.400        16
 128.500        16
 128.600        15
 128.700        15
 128.800        27
 128.900        15
 129.000        20
 129.100        17
 129.200        19
 129.300        21
 129.400        12
 129.500        12
 129.600        13
 129.700        21
 129.800        12
 129.900        13
 130.000        10
 130.100        12
 130.200        13
 130.300        12
 130.400        15
 130.500        13
 130.600        20
 130.700        10
 130.800        24
 130.900        12
 131.000        22
 131.100        12
 131.200        17
 131.300         7
 131.400        23
 131.500        13
 131.600        10
 131.700        16
 131.800        16
 131.900         7
 132.000        16
 132.100        16
 132.200        15
 132.300        21
 132.400        16
 132.500        22
 132.600        20
 132.700        13
 132.800        15
 132.900        16
 133.000        19
 133.100        25
 133.200        20
 133.300         9
 133.400        10
 133.500        13
 133.600        20
 133.700        16
 133.800        15
 133.900        10
 134.000        21
 134.100        19
 134.200        24
 134.300        28
 134.400        24
 134.500        16
 134.600        29
 134.700        38
 134.800        36
 134.900        57
 135.000        82
 135.100       158
 135.200       243
 135.300       190
 135.400       132
 135.500        67
 135.600        49
 135.700        70
 135.800       100
 135.900       125
 136.000       118
 136.100        81
 136.200        39
 136.300        32
 136.400        21
 136.500        30
 136.600        17
 136.700        10
 136.800        19
 136.900        15
 137.000        19
 137.100        16
 137.200        16
 137.300        12
 137.400        12
 137.500        17
 137.600        13
 137.700        10
 137.800        22
 137.900        22
 138.000        23
 138.100        22
 138.200        23
 138.300        23
 138.400        37
 138.500        62
 138.600        59
 138.700        30
 138.800        33
 138.900        32
 139.000        29
 139.100        37
 139.200        28
 139.300        30
 139.400        27
 139.500        26
 139.600        10
 139.700        20
 139.800        12
 139.900        16
 140.000        21
 140.100        16
 140.200        12
 140.300        12
 140.400        12
 140.500        13
 140.600        10
 140.700        19
 140.800        12
 140.900        12
 141.000        25
 141.100         4
 141.200        15
 141.300        10
 141.400         7
 141.500        25
 141.600        10
 141.700        15
 141.800        15
 141.900        15
 142.000        17
 142.100        16
 142.200        21
 142.300         7
 142.400        13
 142.500        15
 142.600         6
 142.700        12
 142.800        12
 142.900        10
 143.000        13
 143.100        16
 143.200        23
 143.300        13
 143.400        16
 143.500        16
 143.600        17
 143.700        17
 143.800        12
 143.900        17
 144.000        16
 144.100         6
 144.200         6
 144.300        19
 144.400        15
 144.500        13
 144.600        12
 144.700        12
 144.800        12
 144.900        20
 145.000        19
 145.100        10
 145.200        10
 145.300        12
 145.400        17
 145.500        13
 145.600        16
 145.700        12
 145.800        13
 145.900        13
 146.000        23
 146.100        13
 146.200        12
 146.300        13
 146.400        10
 146.500        12
 146.600        13
 146.700        17
 146.800        10
 146.900        16
 147.000        10
 147.100        15
 147.200        21
 147.300        16
 147.400        23
 147.500        12
 147.600        10
 147.700        21
 147.800        17
 147.900        10
 148.000        10
 148.100        16
 148.200        19
 148.300        16
 148.400         7
 148.500         6
 148.600        20
 148.700        10
 148.800        19
 148.900        13
 149.000        19
 149.100        16
 149.200        12
 149.300        12
 149.400        12
 149.500        15
 149.600        16
 149.700        13
 149.800        10
 149.900        17
 150.000        23