File: data/XRD/GRANODIO.PRN
   5.000       166
   5.100       139
   5.200       148
   5.300       144
   5.400       174
   5.500       146
   5.600       139
   5.700       141
   5.800       148
   5.900       139
   6.000       129
   6.100       174
   6.200       256
   6.300       210
   6.400       144
   6.500       123
   6.600       141
   6.700       144
   6.800       136
   6.900       139
   7.000       136
   7.100       144
   7.200       123
   7.300       127
   7.400       121
   7.500       129
   7.600       139
   7.700       110
   7.800       139
   7.900       146
   8.000       171
   8.100       182
   8.200       222
   8.300       289
   8.400       538
   8.500      1049
   8.600      2106
   8.700      6561
   8.800     22380
   8.900      2256
   9.000       524
   9.100       262
   9.200       176
   9.300       158
   9.400       127
   9.500       104
   9.600       104
   9.700       100
   9.800        98
   9.900        90
  10.000       110
  10.100       100
  10.200       100
  10.300       121
  10.400       182
  10.500       492
  10.600        98
  10.700        75
  10.800        75
  10.900        82
  11.000        77
  11.100        77
  11.200        68
  11.300        72
  11.400        68
  11.500        70
  11.600        72
  11.700        79
  11.800        65
  11.900        67
  12.000        77
  12.100        75
  12.200        92
  12.300       106
  12.400       169
  12.500       420
  12.600       156
  12.700        82
  12.800        75
  12.900        70
  13.000        72
  13.100        72
  13.200        77
  13.300        73
  13.400       102
  13.500        96
  13.600       153
  13.700       187
  13.800       228
  13.900       259
  14.000        82
  14.100        64
  14.200        67
  14.300        62
  14.400        75
  14.500        56
  14.600        60
  14.700        59
  14.800        59
  14.900        79
  15.000        94
  15.100       114
  15.200        86
  15.300        54
  15.400        64
  15.500        62
  15.600        62
  15.700        72
  15.800        68
  15.900        72
  16.000        57
  16.100        43
  16.200        53
  16.300        57
  16.400        67
  16.500        56
  16.600        53
  16.700        64
  16.800        59
  16.900        60
  17.000        59
  17.100        54
  17.200        56
  17.300        56
  17.400        82
  17.500        84
  17.600       324
  17.700       148
  17.800        90
  17.900        60
  18.000        53
  18.100        65
  18.200        53
  18.300        65
  18.400        53
  18.500        50
  18.600        70
  18.700        82
  18.800       139
  18.900        82
  19.000        84
  19.100        75
  19.200        70
  19.300        90
  19.400        65
  19.500        56
  19.600        64
  19.700        50
  19.800        68
  19.900        62
  20.000        56
  20.100        59
  20.200        88
  20.300        57
  20.400        64
  20.500        75
  20.600       121
  20.700       252
  20.800       841
  20.900      1840
  21.000       416
  21.100       153
  21.200        90
  21.300        70
  21.400        73
  21.500        75
  21.600        72
  21.700        75
  21.800       125
  21.900       231
  22.000       571
  22.100       231
  22.200        94
  22.300       127
  22.400       144
  22.500       125
  22.600        94
  22.700        84
  22.800       148
  22.900       292
  23.000       207
  23.100       148
  23.200       136
  23.300       163
  23.400       201
  23.500       327
  23.600       645
  23.700       571
  23.800       364
  23.900       408
  24.000       285
  24.100       174
  24.200       252
  24.300       384
  24.400       453
  24.500       196
  24.600       121
  24.700       127
  24.800        96
  24.900       106
  25.000       118
  25.100       182
  25.200       216
  25.300       112
  25.400       156
  25.500       268
  25.600       436
  25.700       380
  25.800       196
  25.900       148
  26.000       179
  26.100       222
  26.200       285
  26.300       479
  26.400      1197
  26.500      4583
  26.600      8968
  26.700      6756
  26.800       942
  26.900       552
  27.000       432
  27.100       501
  27.200       302
  27.300       285
  27.400       556
  27.500      1474
  27.600      1142
  27.700       852
  27.800      1780
  27.900      1608
  28.000      2851
  28.100      1398
  28.200       416
  28.300       529
  28.400       441
  28.500       252
  28.600       102
  28.700        90
  28.800        72
  28.900        68
  29.000        77
  29.100        77
  29.200        84
  29.300       100
  29.400       121
  29.500       148
  29.600       184
  29.700       320
  29.800       345
  29.900       285
  30.000       201
  30.100       161
  30.200       213
  30.300       400
  30.400       488
  30.500       457
  30.600       256
  30.700       163
  30.800       249
  30.900       182
  31.000       100
  31.100        75
  31.200        94
  31.300       153
  31.400       299
  31.500       320
  31.600       156
  31.700       129
  31.800       112
  31.900       141
  32.000       104
  32.100        79
  32.200       100
  32.300       144
  32.400       121
  32.500        82
  32.600        65
  32.700        67
  32.800        68
  32.900        88
  33.000        88
  33.100        53
  33.200        64
  33.300        47
  33.400        54
  33.500        47
  33.600        70
  33.700       106
  33.800       216
  33.900       234
  34.000       187
  34.100       139
  34.200       108
  34.300       112
  34.400       114
  34.500       110
  34.600       102
  34.700        92
  34.800       125
  34.900       146
  35.000       144
  35.100       144
  35.200       161
  35.300       171
  35.400       243
  35.500       299
  35.600       538
  35.700       691
  35.800       259
  35.900       121
  36.000       196
  36.100       148
  36.200       104
  36.300       121
  36.400       100
  36.500       353
  36.600       529
  36.700       299
  36.800       184
  36.900       127
  37.000       127
  37.100       136
  37.200       112
  37.300       100
  37.400        88
  37.500        96
  37.600       104
  37.700       129
  37.800        92
  37.900        70
  38.000        50
  38.100        47
  38.200        53
  38.300        90
  38.400        72
  38.500        79
  38.600        79
  38.700       100
  38.800        68
  38.900        68
  39.000        57
  39.100        67
  39.200       100
  39.300       125
  39.400       222
  39.500       542
  39.600       292
  39.700       112
  39.800        82
  39.900        57
  40.000        67
  40.100        73
  40.200       110
  40.300       265
  40.400       144
  40.500        72
  40.600        77
  40.700       102
  40.800       100
  40.900        86
  41.000        70
  41.100        90
  41.200       129
  41.300       129
  41.400       123
  41.500       116
  41.600       104
  41.700       222
  41.800       225
  41.900       166
  42.000        90
  42.100        82
  42.200       118
  42.300       176
  42.400       282
  42.500       384
  42.600       231
  42.700       141
  42.800       156
  42.900       198
  43.000       125
  43.100        84
  43.200        82
  43.300        56
  43.400        50
  43.500        37
  43.600        72
  43.700        62
  43.800        64
  43.900        56
  44.000        57
  44.100        70
  44.200        59
  44.300        67
  44.400        42
  44.500        53
  44.600        56
  44.700        84
  44.800       108
  44.900       243
  45.000       488
  45.100       313
  45.200       193
  45.300       136
  45.400       125
  45.500       121
  45.600       132
  45.700       201
  45.800       324
  45.900       231
  46.000       116
  46.100        96
  46.200        62
  46.300        73
  46.400        59
  46.500        53
  46.600        59
  46.700        73
  46.800        86
  46.900        86
  47.000        75
  47.100        88
  47.200        82
  47.300        86
  47.400       139
  47.500       118
  47.600        81
  47.700        70
  47.800        72
  47.900        64
  48.000        56
  48.100        65
  48.200        86
  48.300       116
  48.400       146
  48.500        96
  48.600        75
  48.700        70
  48.800        96
  48.900       112
  49.000        96
  49.100       114
  49.200       136
  49.300       127
  49.400        84
  49.500        84
  49.600        81
  49.700       144
  49.800       265
  49.900       302
  50.000       282
  50.100       615
  50.200       600
  50.300       453
  50.400       125
  50.500       141
  50.600       231
  50.700       302
  50.800       289
  50.900       174
  51.000       104
  51.100        92
  51.200       125
  51.300       161
  51.400       259
  51.500       182
  51.600       121
  51.700        72
  51.800        62
  51.900        62
  52.000        47
  52.100        59
  52.200        70
  52.300       114
  52.400        79
  52.500       118
  52.600       108
  52.700        79
  52.800        77
  52.900        84
  53.000        90
  53.100       100
  53.200       134
  53.300       125
  53.400        84
  53.500        70
  53.600        56
  53.700        86
  53.800        72
  53.900        72
  54.000        88
  54.100        67
  54.200        98
  54.300       100
  54.400       125
  54.500       193
  54.600       265
  54.700       309
  54.800       262
  54.900       345
  55.000       193
  55.100       118
  55.200        88
  55.300       144
  55.400       148
  55.500       114
  55.600        67
  55.700        60
  55.800        53
  55.900        84
  56.000        56
  56.100        65
  56.200        62
  56.300        56
  56.400        67
  56.500        59
  56.600        62
  56.700        59
  56.800        79
  56.900        68
  57.000        50
  57.100        54
  57.200        77
  57.300        79
  57.400        88
  57.500        79
  57.600        77
  57.700        70
  57.800        65
  57.900        86
  58.000        50
  58.100        57
  58.200        56
  58.300        67
  58.400        62
  58.500        92
  58.600        88
  58.700       114
  58.800       136
  58.900        98
  59.000        77
  59.100        70
  59.200        67
  59.300        65
  59.400        62
  59.500        92
  59.600        92
  59.700       123
  59.800       201
  59.900       432
  60.000       645
  60.100       392
  60.200       210
  60.300       129
  60.400       114
  60.500        96
  60.600        79
  60.700        75
  60.800        84
  60.900        67
  61.000        67
  61.100        73
  61.200        75
  61.300        86
  61.400        73
  61.500        72
  61.600        70
  61.700        84
  61.800        98
  61.900       110
  62.000       102
  62.100        86
  62.200       100
  62.300        84
  62.400        75
  62.500        70
  62.600        84
  62.700       123
  62.800       104
  62.900        88
  63.000        94
  63.100        82
  63.200        86
  63.300        77
  63.400        94
  63.500        79
  63.600        86
  63.700        94
  63.800       166
  63.900       163
  64.000       196
  64.100       196
  64.200       153
  64.300       102
  64.400       102
  64.500        98
  64.600       104
  64.700       151
  64.800       201
  64.900       156
  65.000       129
  65.100       100
  65.200       118
  65.300        79
  65.400        98
  65.500        90
  65.600       108
  65.700        73
  65.800       100
  65.900        77
  66.000        82
  66.100        86
  66.200       100
  66.300        92
  66.400       116
  66.500        96
  66.600        82
  66.700        72
  66.800        70
  66.900        94
  67.000        73
  67.100        90
  67.200        82
  67.300        68
  67.400        70
  67.500        88
  67.600       141
  67.700       306
  67.800       449
  67.900       256
  68.000       249
  68.100       316
  68.200       457
  68.300       605
  68.400       441
  68.500       424
  68.600       246
  68.700       190
  68.800       144
  68.900       134
  69.000        77
  69.100        77
  69.200        81
  69.300        75
  69.400       129
  69.500       104
  69.600       134
  69.700       100
  69.800       100
  69.900       123
  70.000       108
  70.100       100
  70.200       100
  70.300        67
  70.400        75
  70.500        57
  70.600        70
  70.700        81
  70.800        65
  70.900        79
  71.000        96
  71.100        73
  71.200       108
  71.300        79
  71.400       102
  71.500       114
  71.600        90
  71.700       106
  71.800        84
  71.900        77
  72.000        75
  72.100        79
  72.200        68
  72.300        64
  72.400        53
  72.500        60
  72.600        70
  72.700        59
  72.800        70
  72.900        67
  73.000        82
  73.100        75
  73.200        75
  73.300        90
  73.400       123
  73.500       153
  73.600       100
  73.700       134
  73.800        94
  73.900        75
  74.000        88
  74.100        72
  74.200        82
  74.300        96
  74.400        82
  74.500        88
  74.600        88
  74.700        82
  74.800        72
  74.900       104
  75.000        84
  75.100        77
  75.200        88
  75.300        75
  75.400       129
  75.500       136
  75.600       163
  75.700       219
  75.800       114
  75.900       144
  76.000        70
  76.100        62
  76.200        62
  76.300        67
  76.400        70
  76.500        54
  76.600        56
  76.700        56
  76.800        46
  76.900        53
  77.000        50
  77.100        77
  77.200        50
  77.300        57
  77.400        56
  77.500        59
  77.600        75
  77.700       129
  77.800        75
  77.900        88
  78.000        79
  78.100        75
  78.200        70
  78.300       106
  78.400       108
  78.500        84
  78.600        96
  78.700        77
  78.800        62
  78.900        54
  79.000        75
  79.100        72
  79.200        62
  79.300        72
  79.400        62
  79.500        77
  79.600        57
  79.700        50
  79.800        98
  79.900       210
  80.000       125
  80.100       156
  80.200        84
  80.300        59
  80.400        60
  80.500        65
  80.600        60
  80.700        54
  80.800        46
  80.900        60
  81.000        57
  81.100        90
  81.200       151
  81.300        77
  81.400       148
  81.500       225
  81.600       106
  81.700       100
  81.800        79
  81.900        56
  82.000        32
  82.100        62
  82.200        51
  82.300        59
  82.400        68
  82.500        64
  82.600        47
  82.700        47
  82.800        57
  82.900        62
  83.000        60
  83.100        59
  83.200        56
  83.300        59
  83.400        73
  83.500        59
  83.600        73
  83.700        81
  83.800       141
  83.900       102
  84.000        68
  84.100       110
  84.200        72
  84.300        47
  84.400        56
  84.500        65
  84.600        50
  84.700        59
  84.800        57
  84.900        62
  85.000        67
  85.100        50
  85.200        67
  85.300        64
  85.400        56
  85.500        56
  85.600        59
  85.700        57
  85.800        67
  85.900        65
  86.000        60
  86.100        47
  86.200        47
  86.300        43
  86.400        49
  86.500        47
  86.600        32
  86.700        34
  86.800        43
  86.900        57
  87.000        43
  87.100        44
  87.200        43
  87.300        38
  87.400        44
  87.500        54
  87.600        49
  87.700        49
  87.800        50
  87.900        50
  88.000        43
  88.100        43
  88.200        72
  88.300        54
  88.400        59
  88.500        49
  88.600        50
  88.700        51
  88.800        31
  88.900        38
  89.000        42
  89.100        43
  89.200        36
  89.300        44
  89.400        38
  89.500        47
  89.600        44
  89.700        42
  89.800        46
  89.900        50
  90.000        50
  90.100        43
  90.200        37
  90.300        47
  90.400        51
  90.500        56
  90.600        67
  90.700        62
  90.800       169
  90.900       129
  91.000        65
  91.100       118
  91.200        79
  91.300        38
  91.400        38
  91.500        34
  91.600        33
  91.700        34
  91.800        32
  91.900        53
  92.000        54
  92.100        47
  92.200        57
  92.300        62
  92.400        56
  92.500        72
  92.600        82
  92.700        77
  92.800       112
  92.900        68
  93.000        73
  93.100        84
  93.200        59
  93.300        47
  93.400        46
  93.500        40
  93.600        38
  93.700        42
  93.800        47
  93.900        49
  94.000        56
  94.100        53
  94.200        56
  94.300        65
  94.400        56
  94.500        62
  94.600       106
  94.700       129
  94.800        70
  94.900        62
  95.000       104
  95.100        88
  95.200        54
  95.300        50
  95.400        47
  95.500        53
  95.600        47
  95.700        47
  95.800        57
  95.900        39
  96.000        50
  96.100        57
  96.200        94
  96.300       108
  96.400        59
  96.500        54
  96.600        84
  96.700        43
  96.800        38
  96.900        44
  97.000        43
  97.100        37
  97.200        56
  97.300        50
  97.400        40
  97.500        32
  97.600        49
  97.700        43
  97.800        43
  97.900        50
  98.000        38
  98.100        34
  98.200        38
  98.300        30
  98.400        38
  98.500        47
  98.600        49
  98.700        98
  98.800       102
  98.900        51
  99.000        57
  99.100        67
  99.200        59
  99.300        46
  99.400        57
  99.500        54
  99.600        65
  99.700        59
  99.800        75
  99.900        68
 100.000        56
 100.100        64
 100.200        38
 100.300        47
 100.400        43
 100.500        32
 100.600        54
 100.700        44
 100.800        68
 100.900        56
 101.000        57
 101.100        67
 101.200        51
 101.300        42
 101.400        38
 101.500        46
 101.600        44
 101.700        51
 101.800        47
 101.900        39
 102.000        42
 102.100        43
 102.200        82
 102.300        79
 102.400        46
 102.500        53
 102.600       104
 102.700        49
 102.800        44
 102.900        59
 103.000        49
 103.100        40
 103.200        34
 103.300        40
 103.400        40
 103.500        50
 103.600        36
 103.700        37
 103.800        50
 103.900        67
 104.000        54
 104.100        68
 104.200        94
 104.300        67
 104.400        56
 104.500        65
 104.600        49
 104.700        43
 104.800        47
 104.900        51
 105.000        51
 105.100        53
 105.200        43
 105.300        50
 105.400        42
 105.500        43
 105.600        43
 105.700        56
 105.800        49
 105.900        44
 106.000        43
 106.100        32
 106.200        50
 106.300        43
 106.400        44
 106.500        53
 106.600       116
 106.700        75
 106.800        50
 106.900        62
 107.000        72
 107.100        56
 107.200        49
 107.300        44
 107.400        47
 107.500        43
 107.600        49
 107.700        38
 107.800        29
 107.900        47
 108.000        29
 108.100        37
 108.200        37
 108.300        24
 108.400        51
 108.500        37
 108.600        49
 108.700        50
 108.800        38
 108.900        36
 109.000        47
 109.100        32
 109.200        42
 109.300        33
 109.400        38
 109.500        38
 109.600        29
 109.700        37
 109.800        40
 109.900        43
 110.000        47
 110.100        33
 110.200        46
 110.300        33
 110.400        39
 110.500        49
 110.600        32
 110.700        38
 110.800        32
 110.900        38
 111.000        31
 111.100        38
 111.200        28
 111.300        28
 111.400        37
 111.500        38
 111.600        38
 111.700        38
 111.800        28
 111.900        43
 112.000        34
 112.100        47
 112.200        43
 112.300        38
 112.400        38
 112.500        37
 112.600        46
 112.700        32
 112.800        39
 112.900        39
 113.000        42
 113.100        29
 113.200        43
 113.300        36
 113.400        32
 113.500        34
 113.600        38
 113.700        43
 113.800        40
 113.900        46
 114.000        53
 114.100        73
 114.200        70
 114.300        72
 114.400        84
 114.500       163
 114.600       141
 114.700       156
 114.800        79
 114.900       100
 115.000        98
 115.100        96
 115.200        60
 115.300        51
 115.400        51
 115.500        54
 115.600        53
 115.700        38
 115.800        75
 115.900        70
 116.000        57
 116.100        40
 116.200        53
 116.300        53
 116.400        50
 116.500        34
 116.600        40
 116.700        43
 116.800        36
 116.900        47
 117.000        36
 117.100        31
 117.200        31
 117.300        29
 117.400        34
 117.500        38
 117.600        50
 117.700        43
 117.800        27
 117.900        46
 118.000        40
 118.100        47
 118.200        62
 118.300        84
 118.400        77
 118.500        47
 118.600        43
 118.700        47
 118.800        64
 118.900        65
 119.000        47
 119.100        30
 119.200        40
 119.300        56
 119.400        56
 119.500        27
 119.600        53
 119.700        50
 119.800        53
 119.900        53
 120.000        59
 120.100        70
 120.200        59
 120.300        59
 120.400        46
 120.500        51
 120.600        56
 120.700        54
 120.800        44
 120.900        39
 121.000        37
 121.100        46
 121.200        38
 121.300        31
 121.400        37
 121.500        32
 121.600        47
 121.700        42
 121.800        42
 121.900        39
 122.000        43
 122.100        54
 122.200        47
 122.300        43
 122.400        59
 122.500        67
 122.600        86
 122.700        59
 122.800        37
 122.900        40
 123.000        43
 123.100        62
 123.200        47
 123.300        62
 123.400        40
 123.500        29
 123.600        43
 123.700        40
 123.800        34
 123.900        36
 124.000        39
 124.100        38
 124.200        47
 124.300        39
 124.400        47
 124.500        39
 124.600        39
 124.700        38
 124.800        23
 124.900        44
 125.000        53
 125.100        36
 125.200        27
 125.300        47
 125.400        40
 125.500        38
 125.600        42
 125.700        37
 125.800        30
 125.900        31
 126.000        36
 126.100        36
 126.200        47
 126.300        30
 126.400        42
 126.500        33
 126.600        47
 126.700        54
 126.800        42
 126.900        34
 127.000        40
 127.100        32
 127.200        43
 127.300        47
 127.400        56
 127.500        56
 127.600        53
 127.700        47
 127.800        40
 127.900        56
 128.000        38
 128.100        32
 128.200        38
 128.300        38
 128.400        44
 128.500        36
 128.600        38
 128.700        50
 128.800        49
 128.900        43
 129.000        42
 129.100        43
 129.200        50
 129.300        42
 129.400        43
 129.500        39
 129.600        57
 129.700        32
 129.800        43
 129.900        46
 130.000        40
 130.100        47
 130.200        40
 130.300        32
 130.400        50
 130.500        44
 130.600        46
 130.700        30
 130.800        39
 130.900        43
 131.000        50
 131.100        44
 131.200        59
 131.300        56
 131.400        57
 131.500        50
 131.600        47
 131.700        50
 131.800        57
 131.900        56
 132.000        44
 132.100        43
 132.200        39
 132.300        40
 132.400        50
 132.500        67
 132.600        53
 132.700        65
 132.800        57
 132.900        72
 133.000        51
 133.100        50
 133.200        43
 133.300        53
 133.400        54
 133.500        60
 133.600        49
 133.700        38
 133.800        56
 133.900        34
 134.000        40
 134.100        49
 134.200        51
 134.300        53
 134.400        49
 134.500        51
 134.600        42
 134.700        49
 134.800        47
 134.900        51
 135.000        59
 135.100        47
 135.200        47
 135.300        59
 135.400        37
 135.500        47
 135.600        38
 135.700        47
 135.800        50
 135.900        54
 136.000        60
 136.100        42
 136.200        65
 136.300        67
 136.400        98
 136.500       116
 136.600        75
 136.700        67
 136.800        59
 136.900        51
 137.000        65
 137.100        70
 137.200        72
 137.300        77
 137.400        50
 137.500        59
 137.600        65
 137.700        62
 137.800        72
 137.900       116
 138.000        98
 138.100        62
 138.200        62
 138.300        44
 138.400        56
 138.500        59
 138.600        82
 138.700        92
 138.800        62
 138.900        59
 139.000        62
 139.100        62
 139.200        49
 139.300        53
 139.400        65
 139.500        64
 139.600        49
 139.700        62
 139.800        50
 139.900        50
 140.000        56
 140.100        62
 140.200        65
 140.300        67
 140.400        62
 140.500        53
 140.600        44
 140.700        31
 140.800        57
 140.900        49
 141.000        39
 141.100        57
 141.200        59
 141.300        50
 141.400        43
 141.500        43
 141.600        47
 141.700        42
 141.800        51
 141.900        42
 142.000        53
 142.100        50
 142.200        47
 142.300        47
 142.400        34
 142.500        38
 142.600        42
 142.700        53
 142.800        40
 142.900        47
 143.000        56
 143.100        68
 143.200       108
 143.300       146
 143.400        96
 143.500        75
 143.600        50
 143.700        56
 143.800        42
 143.900        65
 144.000        67
 144.100       102
 144.200       102
 144.300        82
 144.400        73
 144.500        65
 144.600        56
 144.700        59
 144.800        67
 144.900        39
 145.000        56
 145.100        56
 145.200        50
 145.300        47
 145.400        43
 145.500        43
 145.600        50
 145.700        54
 145.800        60
 145.900        56
 146.000        43
 146.100        44
 146.200        54
 146.300        46
 146.400        65
 146.500        62
 146.600        98
 146.700       127
 146.800        82
 146.900        62
 147.000        51
 147.100        56
 147.200        46
 147.300        60
 147.400        47
 147.500        77
 147.600        86
 147.700        77
 147.800        60
 147.900        43
 148.000        62
 148.100        62
 148.200        47
 148.300        56
 148.400        49
 148.500        43
 148.600        53
 148.700        44
 148.800        56
 148.900        38
 149.000        44
 149.100        79
 149.200        49
 149.300        53
 149.400        60
 149.500        38
 149.600        56
 149.700        46
 149.800        56
 149.900        56
 150.000        65