File: data/XRD/MAGNETIT.PRN
   5.000       166
   5.100       129
   5.200       151
   5.300       163
   5.400       132
   5.500       132
   5.600       144
   5.700       141
   5.800       129
   5.900       144
   6.000       114
   6.100       100
   6.200       118
   6.300       134
   6.400       125
   6.500       132
   6.600       108
   6.700       106
   6.800       121
   6.900       114
   7.000       104
   7.100        92
   7.200       118
   7.300        90
   7.400       102
   7.500       102
   7.600        98
   7.700        86
   7.800        75
   7.900        84
   8.000        98
   8.100       100
   8.200       100
   8.300        92
   8.400        90
   8.500        82
   8.600        73
   8.700        75
   8.800        84
   8.900        60
   9.000        79
   9.100        77
   9.200        75
   9.300        79
   9.400        68
   9.500        70
   9.600        72
   9.700        59
   9.800        73
   9.900        65
  10.000        73
  10.100        67
  10.200        67
  10.300        67
  10.400        75
  10.500        65
  10.600        73
  10.700        67
  10.800        67
  10.900        82
  11.000        67
  11.100        51
  11.200        60
  11.300        47
  11.400        59
  11.500        50
  11.600        70
  11.700        56
  11.800        57
  11.900        65
  12.000        57
  12.100        56
  12.200        56
  12.300        53
  12.400        51
  12.500        57
  12.600        49
  12.700        57
  12.800        42
  12.900        42
  13.000        60
  13.100        43
  13.200        50
  13.300        36
  13.400        42
  13.500        47
  13.600        53
  13.700        40
  13.800        50
  13.900        44
  14.000        42
  14.100        43
  14.200        46
  14.300        50
  14.400        47
  14.500        46
  14.600        38
  14.700        47
  14.800        43
  14.900        42
  15.000        43
  15.100        44
  15.200        38
  15.300        38
  15.400        47
  15.500        42
  15.600        43
  15.700        34
  15.800        37
  15.900        32
  16.000        40
  16.100        40
  16.200        43
  16.300        39
  16.400        47
  16.500        29
  16.600        30
  16.700        36
  16.800        38
  16.900        38
  17.000        34
  17.100        34
  17.200        31
  17.300        40
  17.400        33
  17.500        44
  17.600        32
  17.700        30
  17.800        47
  17.900        47
  18.000        47
  18.100        82
  18.200       193
  18.300       299
  18.400       174
  18.500        86
  18.600        43
  18.700        47
  18.800        31
  18.900        34
  19.000        32
  19.100        29
  19.200        32
  19.300        43
  19.400        38
  19.500        32
  19.600        28
  19.700        31
  19.800        30
  19.900        27
  20.000        30
  20.100        29
  20.200        36
  20.300        24
  20.400        24
  20.500        38
  20.600        22
  20.700        30
  20.800        28
  20.900        31
  21.000        32
  21.100        23
  21.200        31
  21.300        34
  21.400        25
  21.500        23
  21.600        31
  21.700        22
  21.800        26
  21.900        28
  22.000        27
  22.100        27
  22.200        29
  22.300        19
  22.400        23
  22.500        15
  22.600        31
  22.700        27
  22.800        27
  22.900        22
  23.000        22
  23.100        26
  23.200        22
  23.300        27
  23.400        27
  23.500        21
  23.600        32
  23.700        17
  23.800        24
  23.900        19
  24.000        23
  24.100        23
  24.200        20
  24.300        23
  24.400        23
  24.500        37
  24.600        27
  24.700        26
  24.800        21
  24.900        30
  25.000        22
  25.100        22
  25.200        31
  25.300        27
  25.400        32
  25.500        25
  25.600        25
  25.700        20
  25.800        23
  25.900        22
  26.000        27
  26.100        27
  26.200        31
  26.300        32
  26.400        29
  26.500        29
  26.600        15
  26.700        16
  26.800        10
  26.900        21
  27.000        16
  27.100        31
  27.200        19
  27.300        10
  27.400        27
  27.500        22
  27.600        17
  27.700        25
  27.800        29
  27.900        32
  28.000        13
  28.100        16
  28.200        17
  28.300        15
  28.400        26
  28.500        24
  28.600        20
  28.700        16
  28.800        19
  28.900        30
  29.000        21
  29.100        26
  29.200        34
  29.300        26
  29.400        43
  29.500        37
  29.600        56
  29.700        79
  29.800       139
  29.900       222
  30.000       524
  30.100       778
  30.200       585
  30.300       292
  30.400       141
  30.500        90
  30.600        65
  30.700        53
  30.800        53
  30.900        32
  31.000        32
  31.100        22
  31.200        19
  31.300        26
  31.400        23
  31.500        27
  31.600        29
  31.700        29
  31.800        25
  31.900        24
  32.000        23
  32.100        32
  32.200        28
  32.300        21
  32.400        20
  32.500        16
  32.600        24
  32.700        25
  32.800        16
  32.900        16
  33.000        21
  33.100        26
  33.200        22
  33.300        22
  33.400        28
  33.500        25
  33.600        26
  33.700        22
  33.800        26
  33.900        32
  34.000        25
  34.100        34
  34.200        26
  34.300        43
  34.400        30
  34.500        46
  34.600        67
  34.700        68
  34.800       114
  34.900       129
  35.000       182
  35.100       361
  35.200       576
  35.300      1122
  35.400      2070
  35.500      2430
  35.600      1513
  35.700       761
  35.800       441
  35.900       256
  36.000       169
  36.100       108
  36.200        94
  36.300        62
  36.400        60
  36.500        50
  36.600        65
  36.700        59
  36.800        64
  36.900        86
  37.000       136
  37.100       190
  37.200       151
  37.300        81
  37.400        51
  37.500        43
  37.600        24
  37.700        19
  37.800        13
  37.900        21
  38.000        32
  38.100        22
  38.200        20
  38.300        10
  38.400        16
  38.500        24
  38.600        15
  38.700        13
  38.800        15
  38.900        13
  39.000        19
  39.100        10
  39.200        13
  39.300        13
  39.400         9
  39.500        22
  39.600        10
  39.700        16
  39.800        12
  39.900        10
  40.000        23
  40.100        12
  40.200        13
  40.300        16
  40.400        16
  40.500        24
  40.600        19
  40.700        20
  40.800        15
  40.900         7
  41.000        12
  41.100        16
  41.200        10
  41.300        13
  41.400        16
  41.500        20
  41.600        15
  41.700        24
  41.800        22
  41.900        15
  42.000        12
  42.100        19
  42.200        25
  42.300        25
  42.400        33
  42.500        56
  42.600        50
  42.700        75
  42.800       136
  42.900       231
  43.000       396
  43.100       547
  43.200       416
  43.300       265
  43.400       156
  43.500        90
  43.600        59
  43.700        40
  43.800        42
  43.900        36
  44.000        16
  44.100        12
  44.200        20
  44.300        21
  44.400        16
  44.500        16
  44.600        16
  44.700        16
  44.800        10
  44.900        10
  45.000        16
  45.100        10
  45.200        13
  45.300        15
  45.400        16
  45.500        12
  45.600        10
  45.700        19
  45.800        12
  45.900        20
  46.000        13
  46.100        12
  46.200         7
  46.300        15
  46.400        10
  46.500         4
  46.600         6
  46.700        12
  46.800        16
  46.900        10
  47.000        21
  47.100        17
  47.200        23
  47.300        16
  47.400        15
  47.500        12
  47.600        12
  47.700        10
  47.800        13
  47.900        13
  48.000         6
  48.100        12
  48.200        12
  48.300        12
  48.400        16
  48.500        12
  48.600        12
  48.700        15
  48.800        16
  48.900        17
  49.000        10
  49.100         7
  49.200         5
  49.300         7
  49.400        10
  49.500        12
  49.600        13
  49.700        10
  49.800         9
  49.900        12
  50.000        17
  50.100        12
  50.200        10
  50.300        10
  50.400        13
  50.500         7
  50.600        12
  50.700        21
  50.800        13
  50.900        10
  51.000        19
  51.100        20
  51.200        12
  51.300        16
  51.400        12
  51.500        10
  51.600        23
  51.700        13
  51.800        17
  51.900        16
  52.000        10
  52.100         6
  52.200        12
  52.300        15
  52.400        16
  52.500        21
  52.600        24
  52.700        23
  52.800        24
  52.900        21
  53.000        43
  53.100        57
  53.200        75
  53.300       116
  53.400       163
  53.500       201
  53.600       156
  53.700        88
  53.800        56
  53.900        50
  54.000        30
  54.100        38
  54.200        29
  54.300        28
  54.400        29
  54.500        24
  54.600        23
  54.700        12
  54.800        16
  54.900        12
  55.000        22
  55.100        25
  55.200        16
  55.300        12
  55.400        21
  55.500        17
  55.600        16
  55.700        29
  55.800        27
  55.900        30
  56.000        32
  56.100        38
  56.200        56
  56.300        67
  56.400        79
  56.500        77
  56.600       129
  56.700       196
  56.800       302
  56.900       432
  57.000       542
  57.100       470
  57.200       357
  57.300       234
  57.400       166
  57.500       104
  57.600        82
  57.700        60
  57.800        47
  57.900        50
  58.000        38
  58.100        32
  58.200        25
  58.300        28
  58.400        16
  58.500        23
  58.600        23
  58.700        16
  58.800        22
  58.900        15
  59.000        16
  59.100        21
  59.200        17
  59.300        12
  59.400        17
  59.500        17
  59.600        12
  59.700        21
  59.800        16
  59.900        12
  60.000        10
  60.100        12
  60.200        17
  60.300        15
  60.400        12
  60.500        15
  60.600        22
  60.700        25
  60.800        20
  60.900        22
  61.000        28
  61.100        42
  61.200        20
  61.300        30
  61.400        33
  61.500        29
  61.600        34
  61.700        40
  61.800        60
  61.900        65
  62.000       125
  62.100       136
  62.200       182
  62.300       252
  62.400       420
  62.500       533
  62.600       655
  62.700       542
  62.800       470
  62.900       324
  63.000       225
  63.100       163
  63.200       114
  63.300       102
  63.400        67
  63.500        57
  63.600        53
  63.700        38
  63.800        31
  63.900        32
  64.000        21
  64.100        21
  64.200        17
  64.300        28
  64.400        12
  64.500        10
  64.600        15
  64.700        13
  64.800        20
  64.900        16
  65.000        30
  65.100        12
  65.200        21
  65.300        26
  65.400        19
  65.500        19
  65.600        26
  65.700        22
  65.800        27
  65.900        23
  66.000        23
  66.100        21
  66.200        13
  66.300        13
  66.400         7
  66.500        23
  66.600        12
  66.700        12
  66.800        16
  66.900        12
  67.000        16
  67.100        12
  67.200        12
  67.300        13
  67.400        12
  67.500         7
  67.600        12
  67.700        17
  67.800         9
  67.900        10
  68.000        10
  68.100        10
  68.200        10
  68.300         6
  68.400         7
  68.500        12
  68.600        12
  68.700        10
  68.800         9
  68.900        10
  69.000        12
  69.100        16
  69.200        12
  69.300        12
  69.400        16
  69.500         9
  69.600         9
  69.700        12
  69.800         9
  69.900        12
  70.000        12
  70.100        17
  70.200        16
  70.300        19
  70.400        26
  70.500        22
  70.600        30
  70.700        33
  70.800        32
  70.900        43
  71.000        67
  71.100        46
  71.200        49
  71.300        40
  71.400        36
  71.500        17
  71.600        25
  71.700        20
  71.800        15
  71.900        10
  72.000        17
  72.100        17
  72.200        17
  72.300        21
  72.400        16
  72.500        10
  72.600        16
  72.700        25
  72.800        19
  72.900        10
  73.000        20
  73.100        17
  73.200        24
  73.300        30
  73.400        32
  73.500        39
  73.600        53
  73.700        67
  73.800        75
  73.900        86
  74.000       110
  74.100       121
  74.200        96
  74.300        84
  74.400        62
  74.500        49
  74.600        43
  74.700        57
  74.800        50
  74.900        40
  75.000        65
  75.100        62
  75.200        57
  75.300        43
  75.400        43
  75.500        32
  75.600        33
  75.700        19
  75.800        19
  75.900        23
  76.000        17
  76.100        24
  76.200        12
  76.300        13
  76.400        12
  76.500        19
  76.600         9
  76.700         7
  76.800         9
  76.900        10
  77.000         5
  77.100        17
  77.200        12
  77.300        16
  77.400         7
  77.500         9
  77.600        13
  77.700        10
  77.800        13
  77.900        12
  78.000        10
  78.100        12
  78.200        13
  78.300        12
  78.400        15
  78.500        24
  78.600        21
  78.700        21
  78.800        26
  78.900        29
  79.000        37
  79.100        33
  79.200        36
  79.300        29
  79.400        21
  79.500        22
  79.600        16
  79.700        19
  79.800        16
  79.900        10
  80.000        19
  80.100         9
  80.200         7
  80.300        16
  80.400        12
  80.500        20
  80.600        12
  80.700        12
  80.800        12
  80.900        10
  81.000         9
  81.100         9
  81.200         4
  81.300        10
  81.400        12
  81.500        13
  81.600        16
  81.700        16
  81.800        10
  81.900        15
  82.000        16
  82.100        19
  82.200        10
  82.300        10
  82.400        10
  82.500        20
  82.600        12
  82.700        10
  82.800        16
  82.900        12
  83.000        13
  83.100        10
  83.200        10
  83.300         9
  83.400         4
  83.500        10
  83.600         6
  83.700        10
  83.800        15
  83.900        10
  84.000        10
  84.100        10
  84.200        13
  84.300        10
  84.400        15
  84.500         6
  84.600        10
  84.700         5
  84.800        16
  84.900        15
  85.000         7
  85.100         7
  85.200         5
  85.300        16
  85.400        16
  85.500        12
  85.600         6
  85.700        20
  85.800        13
  85.900        21
  86.000        16
  86.100        10
  86.200        16
  86.300        13
  86.400        27
  86.500        30
  86.600        31
  86.700        50
  86.800        43
  86.900        47
  87.000        43
  87.100        34
  87.200        38
  87.300        22
  87.400        37
  87.500        33
  87.600        20
  87.700        20
  87.800        12
  87.900        20
  88.000        13
  88.100        17
  88.200        16
  88.300        17
  88.400        16
  88.500        28
  88.600        20
  88.700        30
  88.800        37
  88.900        32
  89.000        40
  89.100        43
  89.200        65
  89.300        62
  89.400        79
  89.500       110
  89.600       121
  89.700       153
  89.800       134
  89.900       116
  90.000       110
  90.100        82
  90.200        84
  90.300        62
  90.400        50
  90.500        43
  90.600        39
  90.700        30
  90.800        25
  90.900        19
  91.000        23
  91.100        29
  91.200        13
  91.300        21
  91.400        15
  91.500        20
  91.600         7
  91.700        12
  91.800         7
  91.900        16
  92.000        16
  92.100        15
  92.200        12
  92.300        16
  92.400        10
  92.500        12
  92.600        21
  92.700        17
  92.800         9
  92.900        13
  93.000        22
  93.100        15
  93.200        13
  93.300        10
  93.400        21
  93.500        22
  93.600        21
  93.700        13
  93.800        17
  93.900        25
  94.000        23
  94.100        32
  94.200        46
  94.300        47
  94.400        53
  94.500        56
  94.600        68
  94.700        64
  94.800        57
  94.900        46
  95.000        43
  95.100        31
  95.200        25
  95.300        26
  95.400        22
  95.500        27
  95.600        20
  95.700         9
  95.800        22
  95.900        10
  96.000        17
  96.100        16
  96.200         7
  96.300        16
  96.400         6
  96.500        19
  96.600        10
  96.700        13
  96.800        12
  96.900        10
  97.000        16
  97.100        12
  97.200        12
  97.300        12
  97.400         5
  97.500        12
  97.600         7
  97.700        10
  97.800        10
  97.900        10
  98.000        10
  98.100        15
  98.200        10
  98.300        13
  98.400         7
  98.500         5
  98.600         9
  98.700         4
  98.800         5
  98.900        17
  99.000        10
  99.100        10
  99.200         9
  99.300         7
  99.400        10
  99.500         6
  99.600        10
  99.700        16
  99.800        16
  99.900        12
 100.000         6
 100.100        16
 100.200         6
 100.300        10
 100.400        10
 100.500        10
 100.600        16
 100.700        16
 100.800        16
 100.900        12
 101.000         7
 101.100        10
 101.200         6
 101.300        19
 101.400        13
 101.500        13
 101.600        10
 101.700        16
 101.800        16
 101.900        25
 102.000        19
 102.100        25
 102.200        24
 102.300        27
 102.400        20
 102.500        32
 102.600        29
 102.700        26
 102.800        28
 102.900        19
 103.000        23
 103.100        17
 103.200        22
 103.300        17
 103.400        15
 103.500        22
 103.600        16
 103.700        15
 103.800        19
 103.900        16
 104.000        19
 104.100        17
 104.200        16
 104.300        24
 104.400        28
 104.500        30
 104.600        25
 104.700        36
 104.800        33
 104.900        51
 105.000        54
 105.100        77
 105.200        67
 105.300        72
 105.400        86
 105.500        65
 105.600        51
 105.700        70
 105.800        49
 105.900        47
 106.000        44
 106.100        43
 106.200        56
 106.300        39
 106.400        43
 106.500        37
 106.600        29
 106.700        25
 106.800        17
 106.900        31
 107.000        16
 107.100        22
 107.200        13
 107.300        13
 107.400        23
 107.500        12
 107.600        16
 107.700        12
 107.800        20
 107.900        12
 108.000        25
 108.100        21
 108.200        16
 108.300        10
 108.400        12
 108.500        12
 108.600        10
 108.700         7
 108.800        19
 108.900        10
 109.000        10
 109.100        10
 109.200        10
 109.300        12
 109.400        25
 109.500        25
 109.600        16
 109.700        17
 109.800        26
 109.900        27
 110.000        25
 110.100        24
 110.200        31
 110.300        28
 110.400        32
 110.500        39
 110.600        26
 110.700        38
 110.800        36
 110.900        24
 111.000        36
 111.100        23
 111.200        21
 111.300        16
 111.400        21
 111.500        20
 111.600        12
 111.700        16
 111.800        19
 111.900        15
 112.000        10
 112.100        10
 112.200        10
 112.300        12
 112.400        16
 112.500         4
 112.600        13
 112.700        10
 112.800        17
 112.900        12
 113.000         9
 113.100         9
 113.200        16
 113.300        17
 113.400        15
 113.500        20
 113.600        10
 113.700        16
 113.800        13
 113.900        16
 114.000        13
 114.100        12
 114.200        12
 114.300        12
 114.400        12
 114.500         6
 114.600        15
 114.700        10
 114.800        10
 114.900        10
 115.000         4
 115.100        12
 115.200        12
 115.300        10
 115.400        12
 115.500        10
 115.600        13
 115.700        10
 115.800        12
 115.900         9
 116.000         5
 116.100         6
 116.200         6
 116.300         7
 116.400        15
 116.500        16
 116.600        12
 116.700        12
 116.800        10
 116.900         7
 117.000        15
 117.100        10
 117.200        12
 117.300        12
 117.400        10
 117.500        20
 117.600        12
 117.700        13
 117.800        16
 117.900         9
 118.000        10
 118.100        17
 118.200        15
 118.300        15
 118.400        21
 118.500        13
 118.600        17
 118.700        19
 118.800        17
 118.900        20
 119.000        12
 119.100        24
 119.200        21
 119.300        20
 119.400        22
 119.500        16
 119.600        20
 119.700        16
 119.800        10
 119.900        19
 120.000         7
 120.100        16
 120.200        13
 120.300        21
 120.400        16
 120.500        19
 120.600        15
 120.700        13
 120.800        15
 120.900        19
 121.000        21
 121.100        10
 121.200        30
 121.300        23
 121.400        38
 121.500        30
 121.600        21
 121.700        36
 121.800        53
 121.900        43
 122.000        40
 122.100        43
 122.200        59
 122.300        50
 122.400        47
 122.500        64
 122.600        50
 122.700        39
 122.800        50
 122.900        44
 123.000        39
 123.100        30
 123.200        32
 123.300        27
 123.400        27
 123.500        34
 123.600        16
 123.700        19
 123.800        28
 123.900        15
 124.000        19
 124.100        22
 124.200        16
 124.300        16
 124.400        20
 124.500        28
 124.600        16
 124.700        15
 124.800        17
 124.900        16
 125.000        21
 125.100        23
 125.200        12
 125.300        16
 125.400        19
 125.500        19
 125.600        17
 125.700        23
 125.800        16
 125.900        30
 126.000        13
 126.100        25
 126.200        27
 126.300        27
 126.400        24
 126.500        31
 126.600        29
 126.700        23
 126.800        36
 126.900        34
 127.000        26
 127.100        36
 127.200        40
 127.300        40
 127.400        49
 127.500        56
 127.600        70
 127.700        65
 127.800        70
 127.900        70
 128.000        98
 128.100        86
 128.200       102
 128.300        75
 128.400        82
 128.500        88
 128.600        84
 128.700        84
 128.800        72
 128.900        84
 129.000        70
 129.100        50
 129.200        51
 129.300        43
 129.400        50
 129.500        50
 129.600        46
 129.700        33
 129.800        44
 129.900        28
 130.000        26
 130.100        33
 130.200        25
 130.300        23
 130.400        21
 130.500        28
 130.600        22
 130.700        23
 130.800        23
 130.900        20
 131.000        16
 131.100        28
 131.200        20
 131.300        15
 131.400        22
 131.500        25
 131.600        21
 131.700        16
 131.800        22
 131.900        16
 132.000        12
 132.100        17
 132.200        20
 132.300        10
 132.400        12
 132.500        13
 132.600        16
 132.700        12
 132.800        12
 132.900         7
 133.000        16
 133.100        12
 133.200        23
 133.300        12
 133.400        13
 133.500        20
 133.600        21
 133.700        13
 133.800        10
 133.900        21
 134.000        21
 134.100        19
 134.200        13
 134.300         7
 134.400        13
 134.500        10
 134.600        22
 134.700         4
 134.800        10
 134.900        12
 135.000        20
 135.100        15
 135.200        16
 135.300        12
 135.400        26
 135.500        16
 135.600        25
 135.700        15
 135.800        13
 135.900        19
 136.000        16
 136.100         9
 136.200        12
 136.300        12
 136.400         7
 136.500        10
 136.600        16
 136.700        16
 136.800        12
 136.900        13
 137.000        15
 137.100        16
 137.200        22
 137.300        22
 137.400        12
 137.500        22
 137.600        19
 137.700        23
 137.800        19
 137.900        25
 138.000        21
 138.100        15
 138.200        25
 138.300        30
 138.400        16
 138.500        26
 138.600        37
 138.700        38
 138.800        38
 138.900        36
 139.000        38
 139.100        28
 139.200        28
 139.300        40
 139.400        25
 139.500        24
 139.600        29
 139.700        21
 139.800        23
 139.900        22
 140.000        17
 140.100        26
 140.200        31
 140.300        21
 140.400        28
 140.500        29
 140.600        28
 140.700        26
 140.800        30
 140.900        32
 141.000        22
 141.100        22
 141.200        23
 141.300        20
 141.400        15
 141.500        26
 141.600        32
 141.700        28
 141.800        29
 141.900        32
 142.000        42
 142.100        36
 142.200        37
 142.300        38
 142.400        43
 142.500        36
 142.600        42
 142.700        51
 142.800        38
 142.900        56
 143.000        49
 143.100        49
 143.200        57
 143.300        65
 143.400        46
 143.500        65
 143.600        57
 143.700        59
 143.800        57
 143.900        57
 144.000        57
 144.100        56
 144.200        56
 144.300        59
 144.400        62
 144.500        46
 144.600        57
 144.700        65
 144.800        53
 144.900        56
 145.000        56
 145.100        46
 145.200        42
 145.300        43
 145.400        38
 145.500        42
 145.600        38
 145.700        32
 145.800        32
 145.900        25
 146.000        21
 146.100        33
 146.200        27
 146.300        38
 146.400        25
 146.500        32
 146.600        17
 146.700        27
 146.800        26
 146.900        25
 147.000        31
 147.100        21
 147.200        24
 147.300        21
 147.400        21
 147.500        16
 147.600        15
 147.700        15
 147.800        32
 147.900        23
 148.000        21
 148.100        16
 148.200        19
 148.300        13
 148.400        17
 148.500        13
 148.600        16
 148.700        12
 148.800        20
 148.900        21
 149.000        12
 149.100        15
 149.200        16
 149.300        22
 149.400        16
 149.500        12
 149.600        17
 149.700        12
 149.800        15
 149.900        10
 150.000        12