File: data/XRD/MANNITOL.PRN
  5.000 196
  5.080 204
  5.160 207
  5.240 187
  5.320 187
  5.400 176
  5.480 182
  5.560 184
  5.640 176
  5.720 151
  5.800 169
  5.880 144
  5.960 158
  6.040 148
  6.120 169
  6.200 166
  6.280 182
  6.360 146
  6.440 161
  6.520 148
  6.600 163
  6.680 153
  6.760 139
  6.840 151
  6.920 148
  7.000 141
  7.080 146
  7.160 141
  7.240 141
  7.320 166
  7.400 151
  7.480 136
  7.560 151
  7.640 148
  7.720 153
  7.800 132
  7.880 139
  7.960 129
  8.040 129
  8.120 136
  8.200 129
  8.280 161
  8.360 156
  8.440 132
  8.520 125
  8.600 144
  8.680 132
  8.760 146
  8.840 156
  8.920 129
  9.000 134
  9.080 144
  9.160 148
  9.240 136
  9.320 144
  9.400 151
  9.480 123
  9.560 139
  9.640 158
  9.720 153
  9.800 187
  9.880 243
  9.960 302
 10.040 524
 10.120 817
 10.200 1482
 10.280 3124
 10.360 5431
 10.440 11924
 10.520 4802
 10.600 334
 10.680 210
 10.760 176
 10.840 163
 10.920 163
 11.000 161
 11.080 190
 11.160 213
 11.240 331
 11.320 457
 11.400 795
 11.480 739
 11.560 158
 11.640 153
 11.720 146
 11.800 129
 11.880 136
 11.960 127
 12.040 132
 12.120 139
 12.200 163
 12.280 112
 12.360 127
 12.440 153
 12.520 132
 12.600 125
 12.680 136
 12.760 136
 12.840 139
 12.920 158
 13.000 151
 13.080 144
 13.160 156
 13.240 148
 13.320 144
 13.400 136
 13.480 158
 13.560 118
 13.640 148
 13.720 146
 13.800 153
 13.880 153
 13.960 174
 14.040 262
 14.120 412
 14.200 655
 14.280 1552
 14.360 2693
 14.440 4858
 14.520 12321
 14.600 16770
 14.680 11257
 14.760 576
 14.840 342
 14.920 256
 15.000 198
 15.080 174
 15.160 163
 15.240 144
 15.320 144
 15.400 151
 15.480 148
 15.560 141
 15.640 146
 15.720 144
 15.800 134
 15.880 136
 15.960 136
 16.040 139
 16.120 148
 16.200 169
 16.280 174
 16.360 187
 16.440 246
 16.520 380
 16.600 556
 16.680 936
 16.760 1421
 16.840 812
 16.920 262
 17.000 201
 17.080 171
 17.160 187
 17.240 161
 17.320 187
 17.400 190
 17.480 176
 17.560 193
 17.640 184
 17.720 204
 17.800 222
 17.880 231
 17.960 243
 18.040 252
 18.120 392
 18.200 605
 18.280 954
 18.360 1780
 18.440 3576
 18.520 6839
 18.600 13064
 18.680 26961
 18.760 32400
 18.840 9820
 18.920 1689
 19.000 1705
 19.080 1369
 19.160 729
 19.240 334
 19.320 316
 19.400 282
 19.480 292
 19.560 357
 19.640 400
 19.720 338
 19.800 265
 19.880 327
 19.960 345
 20.040 388
 20.120 615
 20.200 1260
 20.280 1866
 20.360 3260
 20.440 6480
 20.520 2391
 20.600 686
 20.680 912
 20.760 1436
 20.840 2520
 20.920 4747
 21.000 9139
 21.080 9139
 21.160 4448
 21.240 864
 21.320 515
 21.400 620
 21.480 876
 21.560 1339
 21.640 1909
 21.720 1764
 21.800 524
 21.880 265
 21.960 240
 22.040 240
 22.120 292
 22.200 292
 22.280 292
 22.360 327
 22.440 349
 22.520 361
 22.600 364
 22.680 466
 22.760 670
 22.840 992
 22.920 1780
 23.000 3192
 23.080 5416
 23.160 10180
 23.240 21462
 23.320 31790
 23.400 48796
 23.480 18009
 23.560 1697
 23.640 979
 23.720 620
 23.800 441
 23.880 372
 23.960 342
 24.040 349
 24.120 331
 24.200 331
 24.280 342
 24.360 428
 24.440 529
 24.520 1036
 24.600 1406
 24.680 1831
 24.760 1004
 24.840 357
 24.920 268
 25.000 246
 25.080 237
 25.160 237
 25.240 259
 25.320 262
 25.400 342
 25.480 412
 25.560 576
 25.640 640
 25.720 1274
 25.800 1840
 25.880 2851
 25.960 2294
 26.040 778
 26.120 416
 26.200 295
 26.280 342
 26.360 400
 26.440 510
 26.520 595
 26.600 453
 26.680 289
 26.760 216
 26.840 243
 26.920 225
 27.000 225
 27.080 228
 27.160 219
 27.240 210
 27.320 231
 27.400 240
 27.480 210
 27.560 234
 27.640 295
 27.720 416
 27.800 538
 27.880 756
 27.960 1197
 28.040 1892
 28.120 2981
 28.200 3868
 28.280 6130
 28.360 5595
 28.440 1451
 28.520 380
 28.600 316
 28.680 299
 28.760 295
 28.840 357
 28.920 424
 29.000 600
 29.080 954
 29.160 1755
 29.240 2611
 29.320 3994
 29.400 5806
 29.480 6561
 29.560 3260
 29.640 756
 29.720 396
 29.800 320
 29.880 282
 29.960 268
 30.040 252
 30.120 285
 30.200 289
 30.280 289
 30.360 376
 30.440 428
 30.520 432
 30.600 368
 30.680 275
 30.760 278
 30.840 243
 30.920 349
 31.000 372
 31.080 590
 31.160 835
 31.240 1095
 31.320 1225
 31.400 1296
 31.480 1497
 31.560 2097
 31.640 2992
 31.720 4408
 31.800 2819
 31.880 973
 31.960 376
 32.040 353
 32.120 345
 32.200 361
 32.280 420
 32.360 466
 32.440 660
 32.520 906
 32.600 1310
 32.680 1560
 32.760 918
 32.840 470
 32.920 453
 33.000 620
 33.080 900
 33.160 1332
 33.240 1857
 33.320 3180
 33.400 5112
 33.480 5184
 33.560 4651
 33.640 2851
 33.720 1361
 33.800 858
 33.880 767
 33.960 620
 34.040 484
 34.120 580
 34.200 806
 34.280 1849
 34.360 1274
 34.440 595
 34.520 334
 34.600 357
 34.680 428
 34.760 605
 34.840 615
 34.920 590
 35.000 400
 35.080 292
 35.160 275
 35.240 285
 35.320 285
 35.400 289
 35.480 278
 35.560 364
 35.640 408
 35.720 620
 35.800 625
 35.880 718
 35.960 1011
 36.040 1135
 36.120 681
 36.200 392
 36.280 316
 36.360 320
 36.440 345
 36.520 388
 36.600 357
 36.680 278
 36.760 243
 36.840 272
 36.920 278
 37.000 327
 37.080 338
 37.160 404
 37.240 424
 37.320 408
 37.400 436
 37.480 376
 37.560 412
 37.640 449
 37.720 416
 37.800 416
 37.880 396
 37.960 524
 38.040 670
 38.120 707
 38.200 852
 38.280 1391
 38.360 2332
 38.440 3147
 38.520 4529
 38.600 5535
 38.680 8010
 38.760 4596
 38.840 2061
 38.920 650
 39.000 453
 39.080 380
 39.160 327
 39.240 331
 39.320 316
 39.400 313
 39.480 292
 39.560 295
 39.640 361
 39.720 349
 39.800 384
 39.880 400
 39.960 396
 40.040 420
 40.120 441
 40.200 436
 40.280 376
 40.360 309
 40.440 265
 40.520 275
 40.600 324
 40.680 292
 40.760 278
 40.840 289
 40.920 262
 41.000 320
 41.080 306
 41.160 327
 41.240 345
 41.320 331
 41.400 404
 41.480 484
 41.560 510
 41.640 529
 41.720 585
 41.800 556
 41.880 552
 41.960 524
 42.040 566
 42.120 501
 42.200 428
 42.280 376
 42.360 384
 42.440 453
 42.520 605
 42.600 625
 42.680 745
 42.760 1128
 42.840 1135
 42.920 876
 43.000 660
 43.080 515
 43.160 533
 43.240 566
 43.320 739
 43.400 876
 43.480 1142
 43.560 979
 43.640 1332
 43.720 1592
 43.800 2313
 43.880 3249
 43.960 6084
 44.040 8100
 44.120 6099
 44.200 3025
 44.280 1011
 44.360 590
 44.440 432
 44.520 392
 44.600 400
 44.680 449
 44.760 449
 44.840 441
 44.920 396
 45.000 384
 45.080 404
 45.160 400
 45.240 372
 45.320 441
 45.400 445
 45.480 585
 45.560 605
 45.640 470
 45.720 396
 45.800 320
 45.880 396
 45.960 396
 46.040 342
 46.120 268
 46.200 289
 46.280 252
 46.360 234
 46.440 275
 46.520 313
 46.600 309
 46.680 320
 46.760 388
 46.840 484
 46.920 580
 47.000 767
 47.080 912
 47.160 858
 47.240 795
 47.320 605
 47.400 510
 47.480 547
 47.560 605
 47.640 712
 47.720 924
 47.800 1317
 47.880 1204
 47.960 817
 48.040 547
 48.120 400
 48.200 392
 48.280 313
 48.360 289
 48.440 249
 48.520 219
 48.600 243
 48.680 237
 48.760 262
 48.840 213
 48.920 201
 49.000 234
 49.080 216
 49.160 196
 49.240 216
 49.320 231
 49.400 272
 49.480 234
 49.560 306
 49.640 313
 49.720 316
 49.800 295
 49.880 334
 49.960 368
 50.040 313
 50.120 327
 50.200 302
 50.280 388
 50.360 462
 50.440 412
 50.520 400
 50.600 320
 50.680 349
 50.760 338
 50.840 285
 50.920 275
 51.000 316
 51.080 364
 51.160 462
 51.240 400
 51.320 368
 51.400 259
 51.480 240
 51.560 243
 51.640 246
 51.720 272
 51.800 265
 51.880 309
 51.960 345
 52.040 289
 52.120 262
 52.200 313
 52.280 327
 52.360 376
 52.440 457
 52.520 368
 52.600 309
 52.680 278
 52.760 324
 52.840 316
 52.920 364
 53.000 357
 53.080 316
 53.160 313
 53.240 349
 53.320 306
 53.400 302
 53.480 282
 53.560 292
 53.640 309
 53.720 364
 53.800 404
 53.880 376
 53.960 357
 54.040 313
 54.120 353
 54.200 349
 54.280 372
 54.360 432
 54.440 428
 54.520 457
 54.600 510
 54.680 445
 54.760 361
 54.840 289
 54.920 240
 55.000 231
 55.080 225
 55.160 259
 55.240 292
 55.320 320
 55.400 299
 55.480 295
 55.560 309
 55.640 302
 55.720 320
 55.800 289
 55.880 237
 55.960 262
 56.040 268
 56.120 320
 56.200 334
 56.280 384
 56.360 396
 56.440 309
 56.520 259
 56.600 285
 56.680 259
 56.760 272
 56.840 282
 56.920 262
 57.000 240
 57.080 207
 57.160 201
 57.240 198
 57.320 182
 57.400 193
 57.480 176
 57.560 201
 57.640 240
 57.720 219
 57.800 243
 57.880 302
 57.960 338
 58.040 262
 58.120 259
 58.200 295
 58.280 306
 58.360 388
 58.440 436
 58.520 552
 58.600 686
 58.680 457
 58.760 445
 58.840 345
 58.920 282
 59.000 262
 59.080 240
 59.160 246
 59.240 256
 59.320 275
 59.400 309
 59.480 256
 59.560 259
 59.640 234
 59.720 225
 59.800 201
 59.880 207
 59.960 184
 60.040 219
 60.120 184
 60.200 187
 60.280 243
 60.360 265
 60.440 256
 60.520 262
 60.600 306
 60.680 313
 60.760 285
 60.840 320
 60.920 349
 61.000 334
 61.080 412
 61.160 372
 61.240 265
 61.320 252
 61.400 174
 61.480 184
 61.560 196
 61.640 169
 61.720 190
 61.800 201
 61.880 174
 61.960 196
 62.040 182
 62.120 201
 62.200 219
 62.280 222
 62.360 222
 62.440 237
 62.520 292
 62.600 234
 62.680 327
 62.760 313
 62.840 299
 62.920 285
 63.000 259
 63.080 231
 63.160 234
 63.240 237
 63.320 272
 63.400 292
 63.480 327
 63.560 353
 63.640 392
 63.720 309
 63.800 285
 63.880 331
 63.960 285
 64.040 265
 64.120 278
 64.200 222
 64.280 216
 64.360 219
 64.440 210
 64.520 196
 64.600 171
 64.680 182
 64.760 190
 64.840 179
 64.920 216
 65.000 219
 65.080 210
 65.160 278
 65.240 292
 65.320 345
 65.400 380
 65.480 372
 65.560 338
 65.640 292
 65.720 299
 65.800 256
 65.880 256
 65.960 357
 66.040 376
 66.120 466
 66.200 510
 66.280 506
 66.360 445
 66.440 384
 66.520 372
 66.600 306
 66.680 295
 66.760 272
 66.840 240
 66.920 216
 67.000 196
 67.080 201
 67.160 182
 67.240 184
 67.320 198
 67.400 179
 67.480 207
 67.560 174
 67.640 201
 67.720 196
 67.800 213
 67.880 231
 67.960 228
 68.040 213
 68.120 256
 68.200 190
 68.280 187
 68.360 196
 68.440 207
 68.520 231
 68.600 237
 68.680 231
 68.760 201
 68.840 249
 68.920 249
 69.000 282
 69.080 295
 69.160 302
 69.240 256
 69.320 256
 69.400 225
 69.480 182
 69.560 213
 69.640 225
 69.720 210
 69.800 207
 69.880 179
 69.960 187
 70.040 198
 70.120 219
 70.200 219
 70.280 231
 70.360 237
 70.440 249
 70.520 272
 70.600 306
 70.680 275
 70.760 392
 70.840 392
 70.920 349
 71.000 299
 71.080 278
 71.160 252
 71.240 187
 71.320 228
 71.400 231
 71.480 234
 71.560 222
 71.640 222
 71.720 219
 71.800 166
 71.880 174
 71.960 161
 72.040 166
 72.120 176
 72.200 207
 72.280 268
 72.360 278
 72.440 265
 72.520 259
 72.600 234
 72.680 222
 72.760 187
 72.840 201
 72.920 176
 73.000 174
 73.080 207
 73.160 182
 73.240 210
 73.320 204
 73.400 246
 73.480 275
 73.560 324
 73.640 324
 73.720 327
 73.800 256
 73.880 228
 73.960 222
 74.040 198
 74.120 182
 74.200 174
 74.280 187
 74.360 179
 74.440 182
 74.520 169
 74.600 158
 74.680 174
 74.760 176
 74.840 213
 74.920 193
 75.000 182
 75.080 216
 75.160 182
 75.240 207
 75.320 190
 75.400 201
 75.480 176
 75.560 193
 75.640 216
 75.720 219
 75.800 228
 75.880 222
 75.960 234
 76.040 196
 76.120 182
 76.200 179
 76.280 182
 76.360 210
 76.440 237
 76.520 198
 76.600 246
 76.680 204
 76.760 216
 76.840 219
 76.920 207
 77.000 231
 77.080 228
 77.160 216
 77.240 198
 77.320 213
 77.400 196
 77.480 187
 77.560 216
 77.640 207
 77.720 182
 77.800 207
 77.880 210
 77.960 201
 78.040 234
 78.120 222
 78.200 256
 78.280 213
 78.360 219
 78.440 207
 78.520 204
 78.600 169
 78.680 171
 78.760 174
 78.840 204
 78.920 169
 79.000 198
 79.080 219
 79.160 237
 79.240 225
 79.320 207
 79.400 207
 79.480 228
 79.560 278
 79.640 299
 79.720 272
 79.800 275
 79.880 265
 79.960 213
 80.040 234
 80.120 201
 80.200 182
 80.280 193
 80.360 184
 80.440 193
 80.520 187
 80.600 187
 80.680 219
 80.760 222
 80.840 207
 80.920 204
 81.000 201
 81.080 136
 81.160 139
 81.240 184
 81.320 161
 81.400 176
 81.480 184
 81.560 148
 81.640 169
 81.720 158
 81.800 161
 81.880 153
 81.960 176
 82.040 171
 82.120 193
 82.200 196
 82.280 210
 82.360 216
 82.440 222
 82.520 252
 82.600 225
 82.680 228
 82.760 184
 82.840 210
 82.920 216
 83.000 174
 83.080 210
 83.160 231
 83.240 262
 83.320 237
 83.400 219
 83.480 196
 83.560 213
 83.640 204
 83.720 171
 83.800 196
 83.880 171
 83.960 179
 84.040 210
 84.120 196
 84.200 201
 84.280 210
 84.360 204
 84.440 234
 84.520 237
 84.600 196
 84.680 204
 84.760 225
 84.840 193
 84.920 190
 85.000 176
 85.080 196
 85.160 201
 85.240 219
 85.320 182
 85.400 219
 85.480 201
 85.560 176
 85.640 182
 85.720 182
 85.800 176
 85.880 184
 85.960 169
 86.040 182
 86.120 176
 86.200 179
 86.280 176
 86.360 153
 86.440 190
 86.520 161
 86.600 161
 86.680 161
 86.760 161
 86.840 182
 86.920 196
 87.000 163
 87.080 201
 87.160 190
 87.240 179
 87.320 207
 87.400 187
 87.480 201
 87.560 176
 87.640 179
 87.720 163
 87.800 161
 87.880 156
 87.960 171
 88.040 156
 88.120 184
 88.200 196
 88.280 182
 88.360 163
 88.440 166
 88.520 182
 88.600 129
 88.680 153
 88.760 176
 88.840 166
 88.920 174
 89.000 146
 89.080 182
 89.160 182
 89.240 193
 89.320 174
 89.400 207
 89.480 179
 89.560 207
 89.640 210
 89.720 179
 89.800 216
 89.880 213
 89.960 176
 90.040 193
 90.120 166
 90.200 213
 90.280 171
 90.360 161
 90.440 182
 90.520 151
 90.600 176
 90.680 158
 90.760 174
 90.840 139
 90.920 148
 91.000 141
 91.080 139
 91.160 153
 91.240 141
 91.320 139
 91.400 136
 91.480 153
 91.560 158
 91.640 146
 91.720 151
 91.800 151
 91.880 139
 91.960 144
 92.040 151
 92.120 158
 92.200 136
 92.280 174
 92.360 136
 92.440 144
 92.520 121
 92.600 148
 92.680 139
 92.760 146
 92.840 148
 92.920 134
 93.000 141
 93.080 139
 93.160 158
 93.240 161
 93.320 156
 93.400 158
 93.480 174
 93.560 196
 93.640 176
 93.720 179
 93.800 193
 93.880 174
 93.960 176
 94.040 204
 94.120 210
 94.200 184
 94.280 201
 94.360 179
 94.440 201
 94.520 179
 94.600 158
 94.680 169
 94.760 163
 94.840 174
 94.920 174
 95.000 176
 95.080 182
 95.160 156
 95.240 179
 95.320 176
 95.400 190
 95.480 174
 95.560 153
 95.640 121
 95.720 148
 95.800 139
 95.880 151
 95.960 144
 96.040 169
 96.120 184
 96.200 190
 96.280 193
 96.360 201
 96.440 163
 96.520 148
 96.600 146
 96.680 156
 96.760 158
 96.840 174
 96.920 156
 97.000 169
 97.080 148
 97.160 121
 97.240 121
 97.320 121
 97.400 136
 97.480 136
 97.560 127
 97.640 144
 97.720 136
 97.800 146
 97.880 125
 97.960 156
 98.040 127
 98.120 127
 98.200 134
 98.280 129
 98.360 123
 98.440 141
 98.520 116
 98.600 139
 98.680 136
 98.760 139
 98.840 151
 98.920 127
 99.000 148
 99.080 139
 99.160 151
 99.240 144
 99.320 148
 99.400 139
 99.480 129
 99.560 163
 99.640 141
 99.720 110
 99.800 134
 99.880 146
 99.960 163
100.000 148