File: data/XRD/NIZATIDI.PRN
  5.000 179
  5.080 148
  5.160 176
  5.240 158
  5.320 163
  5.400 148
  5.480 176
  5.560 148
  5.640 148
  5.720 148
  5.800 174
  5.880 151
  5.960 158
  6.040 174
  6.120 204
  6.200 193
  6.280 219
  6.360 249
  6.440 353
  6.520 432
  6.600 650
  6.680 985
  6.760 1713
  6.840 3433
  6.920 6068
  7.000 1036
  7.080 201
  7.160 182
  7.240 141
  7.320 123
  7.400 136
  7.480 136
  7.560 129
  7.640 129
  7.720 125
  7.800 123
  7.880 121
  7.960 106
  8.040 129
  8.120 116
  8.200 110
  8.280 112
  8.360 116
  8.440 112
  8.520 110
  8.600 125
  8.680 100
  8.760 98
  8.840 127
  8.920 110
  9.000 114
  9.080 104
  9.160 112
  9.240 106
  9.320 98
  9.400 100
  9.480 100
  9.560 96
  9.640 92
  9.720 110
  9.800 108
  9.880 104
  9.960 108
 10.040 100
 10.120 110
 10.200 121
 10.280 144
 10.360 176
 10.440 231
 10.520 262
 10.600 144
 10.680 92
 10.760 102
 10.840 86
 10.920 114
 11.000 96
 11.080 92
 11.160 136
 11.240 98
 11.320 112
 11.400 118
 11.480 88
 11.560 84
 11.640 92
 11.720 104
 11.800 110
 11.880 121
 11.960 100
 12.040 153
 12.120 163
 12.200 100
 12.280 106
 12.360 104
 12.440 108
 12.520 100
 12.600 116
 12.680 106
 12.760 96
 12.840 121
 12.920 134
 13.000 132
 13.080 121
 13.160 118
 13.240 108
 13.320 108
 13.400 108
 13.480 148
 13.560 129
 13.640 198
 13.720 334
 13.800 670
 13.880 1004
 13.960 466
 14.040 529
 14.120 985
 14.200 1918
 14.280 4356
 14.360 8190
 14.440 6272
 14.520 1632
 14.600 778
 14.680 1310
 14.760 918
 14.840 198
 14.920 156
 15.000 136
 15.080 151
 15.160 153
 15.240 169
 15.320 278
 15.400 246
 15.480 121
 15.560 129
 15.640 132
 15.720 123
 15.800 139
 15.880 213
 15.960 282
 16.040 501
 16.120 681
 16.200 484
 16.280 193
 16.360 156
 16.440 153
 16.520 213
 16.600 388
 16.680 571
 16.760 561
 16.840 605
 16.920 635
 17.000 1156
 17.080 1391
 17.160 590
 17.240 302
 17.320 342
 17.400 299
 17.480 139
 17.560 139
 17.640 136
 17.720 127
 17.800 141
 17.880 176
 17.960 259
 18.040 380
 18.120 234
 18.200 176
 18.280 136
 18.360 144
 18.440 121
 18.520 121
 18.600 110
 18.680 121
 18.760 141
 18.840 136
 18.920 136
 19.000 134
 19.080 179
 19.160 204
 19.240 299
 19.320 610
 19.400 1376
 19.480 2323
 19.560 2180
 19.640 1600
 19.720 676
 19.800 806
 19.880 1544
 19.960 2323
 20.040 2361
 20.120 2381
 20.200 2106
 20.280 1544
 20.360 538
 20.440 237
 20.520 198
 20.600 222
 20.680 198
 20.760 234
 20.840 262
 20.920 388
 21.000 707
 21.080 1600
 21.160 2143
 21.240 1260
 21.320 345
 21.400 190
 21.480 182
 21.560 179
 21.640 179
 21.720 222
 21.800 320
 21.880 316
 21.960 285
 22.040 320
 22.120 576
 22.200 912
 22.280 595
 22.360 292
 22.440 331
 22.520 368
 22.600 408
 22.680 475
 22.760 640
 22.840 734
 22.920 1218
 23.000 1840
 23.080 2237
 23.160 2798
 23.240 2190
 23.320 750
 23.400 364
 23.480 372
 23.560 338
 23.640 285
 23.720 424
 23.800 580
 23.880 625
 23.960 388
 24.040 309
 24.120 441
 24.200 918
 24.280 1900
 24.360 2641
 24.440 2190
 24.520 1332
 24.600 795
 24.680 600
 24.760 349
 24.840 259
 24.920 256
 25.000 252
 25.080 306
 25.160 396
 25.240 372
 25.320 299
 25.400 272
 25.480 299
 25.560 289
 25.640 249
 25.720 237
 25.800 292
 25.880 400
 25.960 610
 26.040 729
 26.120 835
 26.200 1681
 26.280 3856
 26.360 5882
 26.440 5416
 26.520 3696
 26.600 2611
 26.680 2061
 26.760 846
 26.840 453
 26.920 400
 27.000 306
 27.080 292
 27.160 368
 27.240 610
 27.320 864
 27.400 718
 27.480 702
 27.560 1049
 27.640 1190
 27.720 696
 27.800 556
 27.880 488
 27.960 428
 28.040 324
 28.120 243
 28.200 190
 28.280 193
 28.360 228
 28.440 262
 28.520 213
 28.600 210
 28.680 231
 28.760 210
 28.840 246
 28.920 372
 29.000 466
 29.080 324
 29.160 231
 29.240 182
 29.320 219
 29.400 256
 29.480 320
 29.560 660
 29.640 1324
 29.720 1772
 29.800 1528
 29.880 806
 29.960 492
 30.040 416
 30.120 342
 30.200 207
 30.280 207
 30.360 176
 30.440 190
 30.520 259
 30.600 342
 30.680 262
 30.760 278
 30.840 412
 30.920 630
 31.000 712
 31.080 484
 31.160 228
 31.240 174
 31.320 158
 31.400 198
 31.480 201
 31.560 228
 31.640 302
 31.720 278
 31.800 201
 31.880 252
 31.960 309
 32.040 309
 32.120 249
 32.200 184
 32.280 148
 32.360 161
 32.440 196
 32.520 174
 32.600 161
 32.680 156
 32.760 158
 32.840 156
 32.920 156
 33.000 166
 33.080 210
 33.160 289
 33.240 331
 33.320 249
 33.400 237
 33.480 268
 33.560 313
 33.640 334
 33.720 324
 33.800 282
 33.880 231
 33.960 174
 34.040 231
 34.120 231
 34.200 262
 34.280 349
 34.360 364
 34.440 275
 34.520 231
 34.600 222
 34.680 219
 34.760 169
 34.840 169
 34.920 169
 35.000 190
 35.080 240
 35.160 268
 35.240 240
 35.320 256
 35.400 313
 35.480 324
 35.560 282
 35.640 231
 35.720 256
 35.800 278
 35.880 306
 35.960 338
 36.040 316
 36.120 222
 36.200 161
 36.280 156
 36.360 184
 36.440 196
 36.520 268
 36.600 400
 36.680 361
 36.760 262
 36.840 222
 36.920 231
 37.000 262
 37.080 187
 37.160 146
 37.240 144
 37.320 156
 37.400 174
 37.480 198
 37.560 210
 37.640 210
 37.720 166
 37.800 169
 37.880 182
 37.960 187
 38.040 213
 38.120 268
 38.200 268
 38.280 282
 38.360 272
 38.440 240
 38.520 268
 38.600 364
 38.680 368
 38.760 388
 38.840 400
 38.920 349
 39.000 252
 39.080 187
 39.160 182
 39.240 198
 39.320 222
 39.400 198
 39.480 252
 39.560 299
 39.640 313
 39.720 302
 39.800 252
 39.880 240
 39.960 234
 40.040 225
 40.120 285
 40.200 306
 40.280 306
 40.360 256
 40.440 249
 40.520 292
 40.600 396
 40.680 368
 40.760 320
 40.840 272
 40.920 213
 41.000 196
 41.080 219
 41.160 228
 41.240 174
 41.320 169
 41.400 179
 41.480 174
 41.560 179
 41.640 161
 41.720 156
 41.800 169
 41.880 174
 41.960 184
 42.040 187
 42.120 222
 42.200 184
 42.280 184
 42.360 179
 42.440 182
 42.520 201
 42.600 174
 42.680 187
 42.760 174
 42.840 169
 42.920 213
 43.000 198
 43.080 213
 43.160 193
 43.240 184
 43.320 169
 43.400 187
 43.480 204
 43.560 289
 43.640 342
 43.720 388
 43.800 372
 43.880 384
 43.960 313
 44.040 353
 44.120 289
 44.200 334
 44.280 364
 44.360 353
 44.440 265
 44.520 201
 44.600 201
 44.680 193
 44.760 187
 44.840 204
 44.920 201
 45.000 179
 45.080 163
 45.160 163
 45.240 213
 45.320 201
 45.400 207
 45.480 176
 45.560 136
 45.640 166
 45.720 158
 45.800 163
 45.880 144
 45.960 163
 46.040 166
 46.120 148
 46.200 148
 46.280 182
 46.360 174
 46.440 231
 46.520 213
 46.600 207
 46.680 179
 46.760 182
 46.840 219
 46.920 262
 47.000 240
 47.080 249
 47.160 275
 47.240 342
 47.320 361
 47.400 282
 47.480 249
 47.560 207
 47.640 169
 47.720 176
 47.800 204
 47.880 225
 47.960 249
 48.040 190
 48.120 174
 48.200 148
 48.280 161
 48.360 121
 48.440 123
 48.520 121
 48.600 129
 48.680 114
 48.760 148
 48.840 148
 48.920 169
 49.000 156
 49.080 176
 49.160 163
 49.240 163
 49.320 163
 49.400 196
 49.480 174
 49.560 213
 49.640 219
 49.720 282
 49.800 285
 49.880 368
 49.960 364
 50.040 357
 50.120 302
 50.200 228
 50.280 225
 50.360 213
 50.440 158
 50.520 174
 50.600 193
 50.680 216
 50.760 243
 50.840 256
 50.920 237
 51.000 219
 51.080 219
 51.160 198
 51.240 193
 51.320 163
 51.400 163
 51.480 146
 51.560 174
 51.640 158
 51.720 141
 51.800 144
 51.880 171
 51.960 184
 52.040 182
 52.120 161
 52.200 163
 52.280 156
 52.360 158
 52.440 169
 52.520 184
 52.600 169
 52.680 193
 52.760 201
 52.840 222
 52.920 174
 53.000 196
 53.080 222
 53.160 176
 53.240 210
 53.320 268
 53.400 249
 53.480 210
 53.560 219
 53.640 193
 53.720 196
 53.800 174
 53.880 201
 53.960 176
 54.040 182
 54.120 153
 54.200 148
 54.280 169
 54.360 163
 54.440 161
 54.520 190
 54.600 158
 54.680 171
 54.760 174
 54.840 198
 54.920 174
 55.000 171
 55.080 158
 55.160 148
 55.240 132
 55.320 161
 55.400 123
 55.480 171
 55.560 169
 55.640 153
 55.720 146
 55.800 141
 55.880 153
 55.960 141
 56.040 139
 56.120 161
 56.200 158
 56.280 163
 56.360 148
 56.440 144
 56.520 141
 56.600 144
 56.680 114
 56.760 139
 56.840 127
 56.920 148
 57.000 139
 57.080 156
 57.160 132
 57.240 132
 57.320 141
 57.400 161
 57.480 182
 57.560 174
 57.640 139
 57.720 169
 57.800 174
 57.880 196
 57.960 163
 58.040 166
 58.120 139
 58.200 134
 58.280 169
 58.360 139
 58.440 144
 58.520 125
 58.600 121
 58.680 116
 58.760 127
 58.840 158
 58.920 174
 59.000 169
 59.080 158
 59.160 148
 59.240 174
 59.320 158
 59.400 144
 59.480 171
 59.560 163
 59.640 148
 59.720 146
 59.800 146
 59.880 158
 59.960 156
 60.040 136
 60.120 129
 60.200 153
 60.280 144
 60.360 146
 60.440 129
 60.520 127
 60.600 125
 60.680 134
 60.760 114
 60.840 125
 60.920 151
 61.000 141
 61.080 146
 61.160 127
 61.240 110
 61.320 125
 61.400 136
 61.480 136
 61.560 156
 61.640 129
 61.720 169
 61.800 132
 61.880 166
 61.960 153
 62.040 136
 62.120 127
 62.200 121
 62.280 129
 62.360 132
 62.440 141
 62.520 144
 62.600 134
 62.680 125
 62.760 132
 62.840 114
 62.920 121
 63.000 132
 63.080 121
 63.160 132
 63.240 118
 63.320 106
 63.400 127
 63.480 118
 63.560 116
 63.640 121
 63.720 121
 63.800 144
 63.880 118
 63.960 134
 64.040 148
 64.120 134
 64.200 112
 64.280 127
 64.360 125
 64.440 118
 64.520 106
 64.600 108
 64.680 148
 64.760 151
 64.840 158
 64.920 136
 65.000 136
 65.080 136
 65.160 127
 65.240 136
 65.320 121
 65.400 123
 65.480 139
 65.560 114
 65.640 148
 65.720 132
 65.800 174
 65.880 156
 65.960 158
 66.040 151
 66.120 136
 66.200 153
 66.280 144
 66.360 156
 66.440 151
 66.520 136
 66.600 136
 66.680 151
 66.760 118
 66.840 139
 66.920 127
 67.000 134
 67.080 129
 67.160 108
 67.240 102
 67.320 112
 67.400 118
 67.480 110
 67.560 110
 67.640 132
 67.720 114
 67.800 125
 67.880 114
 67.960 125
 68.040 127
 68.120 125
 68.200 144
 68.280 121
 68.360 114
 68.440 146
 68.520 139
 68.600 121
 68.680 110
 68.760 127
 68.840 139
 68.920 129
 69.000 129
 69.080 129
 69.160 151
 69.240 125
 69.320 134
 69.400 127
 69.480 132
 69.560 144
 69.640 123
 69.720 151
 69.800 144
 69.880 148
 69.960 144
 70.040 127
 70.120 129
 70.200 121
 70.280 108
 70.360 129
 70.440 110
 70.520 114
 70.600 112
 70.680 100
 70.760 129
 70.840 96
 70.920 100
 71.000 110
 71.080 114
 71.160 112
 71.240 114
 71.320 100
 71.400 104
 71.480 92
 71.560 88
 71.640 100
 71.720 106
 71.800 125
 71.880 125
 71.960 121
 72.040 110
 72.120 148
 72.200 110
 72.280 123
 72.360 134
 72.440 121
 72.520 116
 72.600 116
 72.680 110
 72.760 125
 72.840 129
 72.920 127
 73.000 123
 73.080 98
 73.160 129
 73.240 125
 73.320 125
 73.400 112
 73.480 106
 73.560 110
 73.640 121
 73.720 94
 73.800 90
 73.880 94
 73.960 98
 74.040 108
 74.120 114
 74.200 102
 74.280 116
 74.360 92
 74.440 116
 74.520 94
 74.600 98
 74.680 114
 74.760 108
 74.840 123
 74.920 112
 75.000 108
 75.080 116
 75.160 110
 75.240 108
 75.320 114
 75.400 104
 75.480 127
 75.560 98
 75.640 104
 75.720 104
 75.800 102
 75.880 118
 75.960 132
 76.040 121
 76.120 114
 76.200 114
 76.280 125
 76.360 118
 76.440 112
 76.520 104
 76.600 121
 76.680 100
 76.760 118
 76.840 121
 76.920 123
 77.000 98
 77.080 114
 77.160 106
 77.240 96
 77.320 121
 77.400 96
 77.480 116
 77.560 98
 77.640 100
 77.720 98
 77.800 92
 77.880 104
 77.960 98
 78.040 102
 78.120 108
 78.200 106
 78.280 100
 78.360 121
 78.440 114
 78.520 96
 78.600 112
 78.680 102
 78.760 108
 78.840 102
 78.920 116
 79.000 112
 79.080 123
 79.160 108
 79.240 121
 79.320 98
 79.400 106
 79.480 102
 79.560 106
 79.640 121
 79.720 104
 79.800 82
 79.880 100
 79.960 125
 80.040 102
 80.120 127
 80.200 86
 80.280 102
 80.360 114
 80.440 116
 80.520 84
 80.600 81
 80.680 102
 80.760 88
 80.840 108
 80.920 104
 81.000 102
 81.080 102
 81.160 102
 81.240 123
 81.320 94
 81.400 106
 81.480 102
 81.560 118
 81.640 114
 81.720 108
 81.800 110
 81.880 102
 81.960 110
 82.040 110
 82.120 106
 82.200 90
 82.280 108
 82.360 110
 82.440 121
 82.520 108
 82.600 90
 82.680 108
 82.760 90
 82.840 106
 82.920 90
 83.000 86
 83.080 110
 83.160 106
 83.240 116
 83.320 86
 83.400 94
 83.480 102
 83.560 114
 83.640 92
 83.720 104
 83.800 96
 83.880 104
 83.960 75
 84.040 98
 84.120 88
 84.200 96
 84.280 94
 84.360 106
 84.440 98
 84.520 98
 84.600 90
 84.680 94
 84.760 106
 84.840 100
 84.920 102
 85.000 96
 85.080 79
 85.160 98
 85.240 90
 85.320 94
 85.400 90
 85.480 84
 85.560 81
 85.640 84
 85.720 92
 85.800 100
 85.880 100
 85.960 88
 86.040 98
 86.120 94
 86.200 84
 86.280 96
 86.360 96
 86.440 82
 86.520 86
 86.600 86
 86.680 84
 86.760 72
 86.840 82
 86.920 90
 87.000 100
 87.080 86
 87.160 102
 87.240 90
 87.320 77
 87.400 96
 87.480 94
 87.560 77
 87.640 92
 87.720 98
 87.800 84
 87.880 104
 87.960 94
 88.040 88
 88.120 90
 88.200 82
 88.280 112
 88.360 88
 88.440 88
 88.520 92
 88.600 77
 88.680 73
 88.760 84
 88.840 90
 88.920 72
 89.000 86
 89.080 94
 89.160 96
 89.240 75
 89.320 84
 89.400 81
 89.480 86
 89.560 72
 89.640 88
 89.720 79
 89.800 82
 89.880 94
 89.960 88
 90.040 84
 90.120 88
 90.200 77
 90.280 77
 90.360 77
 90.440 62
 90.520 77
 90.600 79
 90.680 88
 90.760 73
 90.840 82
 90.920 82
 91.000 88
 91.080 94
 91.160 98
 91.240 79
 91.320 94
 91.400 75
 91.480 88
 91.560 79
 91.640 67
 91.720 77
 91.800 82
 91.880 94
 91.960 86
 92.040 90
 92.120 72
 92.200 75
 92.280 84
 92.360 68
 92.440 88
 92.520 67
 92.600 92
 92.680 79
 92.760 92
 92.840 88
 92.920 64
 93.000 84
 93.080 77
 93.160 84
 93.240 88
 93.320 90
 93.400 79
 93.480 72
 93.560 75
 93.640 84
 93.720 98
 93.800 77
 93.880 73
 93.960 75
 94.040 90
 94.120 82
 94.200 75
 94.280 94
 94.360 70
 94.440 92
 94.520 90
 94.600 59
 94.680 106
 94.760 72
 94.840 82
 94.920 82
 95.000 79
 95.080 75
 95.160 82
 95.240 70
 95.320 86
 95.400 82
 95.480 82
 95.560 92
 95.640 92
 95.720 70
 95.800 86
 95.880 77
 95.960 75
 96.040 94
 96.120 75
 96.200 79
 96.280 72
 96.360 79
 96.440 79
 96.520 90
 96.600 92
 96.680 70
 96.760 79
 96.840 79
 96.920 75
 97.000 77
 97.080 84
 97.160 79
 97.240 88
 97.320 102
 97.400 82
 97.480 92
 97.560 86
 97.640 73
 97.720 90
 97.800 75
 97.880 77
 97.960 77
 98.040 84
 98.120 73
 98.200 75
 98.280 60
 98.360 121
 98.440 73
 98.520 77
 98.600 94
 98.680 75
 98.760 90
 98.840 92
 98.920 98
 99.000 79
 99.080 72
 99.160 57
 99.240 77
 99.320 90
 99.400 94
 99.480 90
 99.560 75
 99.640 90
 99.720 81
 99.800 84
 99.880 79
 99.960 86
100.000 96