File: data/XRD/PHARM2GR.PRN
  5.000 234
  5.080 275
  5.160 225
  5.240 259
  5.320 228
  5.400 262
  5.480 246
  5.560 249
  5.640 231
  5.720 259
  5.800 249
  5.880 249
  5.960 252
  6.040 216
  6.120 249
  6.200 249
  6.280 249
  6.360 275
  6.440 295
  6.520 309
  6.600 376
  6.680 424
  6.760 492
  6.840 756
  6.920 1156
  7.000 519
  7.080 372
  7.160 420
  7.240 547
  7.320 635
  7.400 829
  7.480 1128
  7.560 1892
  7.640 3410
  7.720 5852
  7.800 10629
  7.880 23932
  7.960 84913
  8.040 47262
  8.120 1874
  8.200 985
  8.280 576
  8.360 723
  8.440 306
  8.520 265
  8.600 252
  8.680 249
  8.760 252
  8.840 252
  8.920 231
  9.000 246
  9.080 259
  9.160 246
  9.240 249
  9.320 249
  9.400 231
  9.480 272
  9.560 228
  9.640 268
  9.720 282
  9.800 292
  9.880 292
  9.960 295
 10.040 282
 10.120 313
 10.200 420
 10.280 457
 10.360 756
 10.440 2401
 10.520 1332
 10.600 320
 10.680 334
 10.760 278
 10.840 334
 10.920 292
 11.000 272
 11.080 331
 11.160 357
 11.240 416
 11.320 432
 11.400 492
 11.480 630
 11.560 600
 11.640 1149
 11.720 870
 11.800 353
 11.880 345
 11.960 357
 12.040 327
 12.120 376
 12.200 388
 12.280 368
 12.360 364
 12.440 445
 12.520 396
 12.600 462
 12.680 620
 12.760 670
 12.840 484
 12.920 510
 13.000 547
 13.080 882
 13.160 918
 13.240 462
 13.320 408
 13.400 392
 13.480 441
 13.560 388
 13.640 412
 13.720 428
 13.800 501
 13.880 538
 13.960 510
 14.040 580
 14.120 734
 14.200 1056
 14.280 1755
 14.360 2672
 14.440 2662
 14.520 2460
 14.600 3025
 14.680 1632
 14.760 1004
 14.840 665
 14.920 519
 15.000 475
 15.080 561
 15.160 571
 15.240 605
 15.320 676
 15.400 712
 15.480 729
 15.560 655
 15.640 630
 15.720 772
 15.800 1197
 15.880 1927
 15.960 4719
 16.040 6512
 16.120 1324
 16.200 930
 16.280 691
 16.360 660
 16.440 595
 16.520 718
 16.600 876
 16.680 1267
 16.760 1413
 16.840 1095
 16.920 806
 17.000 846
 17.080 812
 17.160 645
 17.240 605
 17.320 630
 17.400 615
 17.480 640
 17.560 635
 17.640 789
 17.720 1082
 17.800 1497
 17.880 1528
 17.960 954
 18.040 835
 18.120 817
 18.200 795
 18.280 846
 18.360 858
 18.440 948
 18.520 1413
 18.600 2218
 18.680 4664
 18.760 6789
 18.840 3329
 18.920 1169
 19.000 1089
 19.080 1135
 19.160 1190
 19.240 967
 19.320 985
 19.400 1232
 19.480 1874
 19.560 2209
 19.640 1689
 19.720 985
 19.800 954
 19.880 1156
 19.960 1361
 20.040 1232
 20.120 1376
 20.200 1459
 20.280 1592
 20.360 1849
 20.440 1697
 20.520 936
 20.600 739
 20.680 846
 20.760 858
 20.840 1142
 20.920 1584
 21.000 1971
 21.080 2992
 21.160 2530
 21.240 1128
 21.320 784
 21.400 795
 21.480 918
 21.560 1149
 21.640 1162
 21.720 1095
 21.800 954
 21.880 894
 21.960 734
 22.040 876
 22.120 778
 22.200 772
 22.280 778
 22.360 585
 22.440 702
 22.520 767
 22.600 635
 22.680 655
 22.760 767
 22.840 829
 22.920 1128
 23.000 1296
 23.080 1406
 23.160 2070
 23.240 3091
 23.320 4830
 23.400 7259
 23.480 2992
 23.560 1128
 23.640 1049
 23.720 1197
 23.800 992
 23.880 1043
 23.960 1115
 24.040 1489
 24.120 2052
 24.200 1361
 24.280 1317
 24.360 1568
 24.440 1421
 24.520 1122
 24.600 1176
 24.680 1505
 24.760 1697
 24.840 961
 24.920 590
 25.000 600
 25.080 772
 25.160 1544
 25.240 1281
 25.320 712
 25.400 529
 25.480 497
 25.560 449
 25.640 580
 25.720 696
 25.800 985
 25.880 1421
 25.960 1632
 26.040 1310
 26.120 789
 26.200 858
 26.280 1115
 26.360 1521
 26.440 1489
 26.520 1505
 26.600 1232
 26.680 1062
 26.760 812
 26.840 784
 26.920 888
 27.000 835
 27.080 547
 27.160 547
 27.240 630
 27.320 686
 27.400 655
 27.480 610
 27.560 625
 27.640 734
 27.720 645
 27.800 533
 27.880 519
 27.960 538
 28.040 605
 28.120 795
 28.200 846
 28.280 992
 28.360 900
 28.440 610
 28.520 519
 28.600 515
 28.680 515
 28.760 441
 28.840 436
 28.920 404
 29.000 432
 29.080 462
 29.160 595
 29.240 778
 29.320 1197
 29.400 1672
 29.480 1616
 29.560 1004
 29.640 605
 29.720 707
 29.800 665
 29.880 576
 29.960 529
 30.040 600
 30.120 640
 30.200 605
 30.280 497
 30.360 453
 30.440 488
 30.520 529
 30.600 492
 30.680 519
 30.760 529
 30.840 615
 30.920 676
 31.000 936
 31.080 846
 31.160 610
 31.240 542
 31.320 605
 31.400 620
 31.480 585
 31.560 600
 31.640 772
 31.720 985
 31.800 900
 31.880 936
 31.960 1225
 32.040 1764
 32.120 2683
 32.200 4556
 32.280 10567
 32.360 15104
 32.440 6625
 32.520 1361
 32.600 1183
 32.680 1036
 32.760 660
 32.840 556
 32.920 556
 33.000 585
 33.080 702
 33.160 912
 33.240 1204
 33.320 1505
 33.400 1576
 33.480 1989
 33.560 2294
 33.640 1608
 33.720 888
 33.800 650
 33.880 615
 33.960 580
 34.040 529
 34.120 506
 34.200 691
 34.280 681
 34.360 625
 34.440 510
 34.520 492
 34.600 484
 34.680 479
 34.760 524
 34.840 533
 34.920 600
 35.000 630
 35.080 515
 35.160 501
 35.240 519
 35.320 580
 35.400 585
 35.480 620
 35.560 630
 35.640 566
 35.720 547
 35.800 691
 35.880 852
 35.960 817
 36.040 789
 36.120 635
 36.200 665
 36.280 552
 36.360 542
 36.440 470
 36.520 510
 36.600 529
 36.680 542
 36.760 515
 36.840 510
 36.920 571
 37.000 571
 37.080 585
 37.160 600
 37.240 580
 37.320 556
 37.400 519
 37.480 453
 37.560 457
 37.640 462
 37.720 436
 37.800 449
 37.880 420
 37.960 475
 38.040 538
 38.120 615
 38.200 655
 38.280 1017
 38.360 936
 38.440 973
 38.520 930
 38.600 1156
 38.680 1592
 38.760 1115
 38.840 756
 38.920 529
 39.000 441
 39.080 420
 39.160 428
 39.240 470
 39.320 475
 39.400 620
 39.480 547
 39.560 590
 39.640 515
 39.720 484
 39.800 519
 39.880 529
 39.960 556
 40.040 497
 40.120 492
 40.200 625
 40.280 605
 40.360 566
 40.440 696
 40.520 864
 40.600 1156
 40.680 1936
 40.760 2570
 40.840 1681
 40.920 707
 41.000 519
 41.080 696
 41.160 600
 41.240 466
 41.320 396
 41.400 404
 41.480 475
 41.560 436
 41.640 492
 41.720 466
 41.800 484
 41.880 445
 41.960 453
 42.040 432
 42.120 449
 42.200 364
 42.280 396
 42.360 324
 42.440 384
 42.520 353
 42.600 376
 42.680 384
 42.760 436
 42.840 484
 42.920 453
 43.000 416
 43.080 368
 43.160 428
 43.240 470
 43.320 453
 43.400 475
 43.480 484
 43.560 488
 43.640 600
 43.720 660
 43.800 723
 43.880 778
 43.960 1310
 44.040 1102
 44.120 1135
 44.200 778
 44.280 524
 44.360 408
 44.440 376
 44.520 368
 44.600 342
 44.680 392
 44.760 380
 44.840 364
 44.920 361
 45.000 331
 45.080 353
 45.160 349
 45.240 376
 45.320 361
 45.400 357
 45.480 384
 45.560 479
 45.640 388
 45.720 384
 45.800 372
 45.880 376
 45.960 428
 46.040 353
 46.120 368
 46.200 306
 46.280 376
 46.360 404
 46.440 388
 46.520 388
 46.600 349
 46.680 331
 46.760 372
 46.840 388
 46.920 392
 47.000 488
 47.080 479
 47.160 561
 47.240 492
 47.320 436
 47.400 376
 47.480 392
 47.560 432
 47.640 449
 47.720 506
 47.800 475
 47.880 497
 47.960 380
 48.040 408
 48.120 380
 48.200 338
 48.280 320
 48.360 302
 48.440 342
 48.520 331
 48.600 349
 48.680 342
 48.760 309
 48.840 349
 48.920 361
 49.000 353
 49.080 342
 49.160 353
 49.240 338
 49.320 449
 49.400 449
 49.480 384
 49.560 345
 49.640 320
 49.720 324
 49.800 364
 49.880 372
 49.960 376
 50.040 364
 50.120 353
 50.200 349
 50.280 396
 50.360 353
 50.440 345
 50.520 353
 50.600 349
 50.680 331
 50.760 396
 50.840 324
 50.920 334
 51.000 295
 51.080 278
 51.160 327
 51.240 299
 51.320 289
 51.400 289
 51.480 292
 51.560 285
 51.640 282
 51.720 289
 51.800 295
 51.880 324
 51.960 313
 52.040 420
 52.120 316
 52.200 349
 52.280 299
 52.360 302
 52.440 306
 52.520 313
 52.600 324
 52.680 345
 52.760 338
 52.840 368
 52.920 376
 53.000 345
 53.080 324
 53.160 327
 53.240 285
 53.320 320
 53.400 289
 53.480 289
 53.560 299
 53.640 306
 53.720 306
 53.800 501
 53.880 388
 53.960 424
 54.040 529
 54.120 412
 54.200 416
 54.280 324
 54.360 306
 54.440 320
 54.520 388
 54.600 408
 54.680 384
 54.760 376
 54.840 316
 54.920 302
 55.000 324
 55.080 309
 55.160 268
 55.240 275
 55.320 246
 55.400 246
 55.480 278
 55.560 285
 55.640 268
 55.720 275
 55.800 265
 55.880 265
 55.960 275
 56.040 268
 56.120 265
 56.200 259
 56.280 309
 56.360 306
 56.440 299
 56.520 265
 56.600 249
 56.680 234
 56.760 259
 56.840 262
 56.920 285
 57.000 278
 57.080 285
 57.160 268
 57.240 234
 57.320 256
 57.400 246
 57.480 246
 57.560 237
 57.640 196
 57.720 196
 57.800 231
 57.880 216
 57.960 259
 58.040 234
 58.120 282
 58.200 275
 58.280 302
 58.360 313
 58.440 268
 58.520 285
 58.600 237
 58.680 240
 58.760 262
 58.840 228
 58.920 262
 59.000 259
 59.080 249
 59.160 259
 59.240 259
 59.320 292
 59.400 249
 59.480 272
 59.560 249
 59.640 237
 59.720 228
 59.800 234
 59.880 219
 59.960 198
 60.040 201
 60.120 207
 60.200 243
 60.280 196
 60.360 216
 60.440 228
 60.520 210
 60.600 249
 60.680 231
 60.760 237
 60.840 259
 60.920 225
 61.000 228
 61.080 262
 61.160 278
 61.240 285
 61.320 272
 61.400 275
 61.480 262
 61.560 282
 61.640 225
 61.720 234
 61.800 213
 61.880 207
 61.960 225
 62.040 222
 62.120 204
 62.200 204
 62.280 207
 62.360 213
 62.440 231
 62.520 198
 62.600 196
 62.680 222
 62.760 228
 62.840 213
 62.920 246
 63.000 216
 63.080 210
 63.160 193
 63.240 198
 63.320 207
 63.400 207
 63.480 265
 63.560 327
 63.640 275
 63.720 246
 63.800 225
 63.880 249
 63.960 231
 64.040 256
 64.120 234
 64.200 193
 64.280 210
 64.360 246
 64.440 216
 64.520 198
 64.600 219
 64.680 222
 64.760 187
 64.840 210
 64.920 243
 65.000 228
 65.080 219
 65.160 240
 65.240 231
 65.320 249
 65.400 292
 65.480 285
 65.560 240
 65.640 292
 65.720 292
 65.800 243
 65.880 249
 65.960 262
 66.040 246
 66.120 272
 66.200 219
 66.280 234
 66.360 252
 66.440 256
 66.520 216
 66.600 225
 66.680 201
 66.760 237
 66.840 207
 66.920 237
 67.000 222
 67.080 182
 67.160 201
 67.240 182
 67.320 193
 67.400 184
 67.480 213
 67.560 179
 67.640 237
 67.720 222
 67.800 225
 67.880 219
 67.960 228
 68.040 174
 68.120 219
 68.200 176
 68.280 182
 68.360 198
 68.440 174
 68.520 169
 68.600 210
 68.680 198
 68.760 187
 68.840 182
 68.920 171
 69.000 182
 69.080 210
 69.160 190
 69.240 201
 69.320 222
 69.400 196
 69.480 207
 69.560 193
 69.640 207
 69.720 204
 69.800 201
 69.880 219
 69.960 196
 70.040 207
 70.120 201
 70.200 198
 70.280 184
 70.360 222
 70.440 222
 70.520 246
 70.600 216
 70.680 249
 70.760 234
 70.840 234
 70.920 231
 71.000 207
 71.080 174
 71.160 193
 71.240 207
 71.320 201
 71.400 174
 71.480 196
 71.560 201
 71.640 144
 71.720 193
 71.800 184
 71.880 163
 71.960 182
 72.040 171
 72.120 174
 72.200 184
 72.280 198
 72.360 198
 72.440 187
 72.520 210
 72.600 222
 72.680 204
 72.760 201
 72.840 187
 72.920 184
 73.000 207
 73.080 193
 73.160 187
 73.240 213
 73.320 207
 73.400 198
 73.480 225
 73.560 198
 73.640 219
 73.720 228
 73.800 198
 73.880 196
 73.960 198
 74.040 182
 74.120 182
 74.200 201
 74.280 163
 74.360 207
 74.440 182
 74.520 187
 74.600 201
 74.680 204
 74.760 196
 74.840 216
 74.920 216
 75.000 196
 75.080 207
 75.160 204
 75.240 201
 75.320 193
 75.400 198
 75.480 190
 75.560 190
 75.640 207
 75.720 204
 75.800 187
 75.880 184
 75.960 216
 76.040 196
 76.120 190
 76.200 210
 76.280 201
 76.360 184
 76.440 187
 76.520 171
 76.600 184
 76.680 174
 76.760 169
 76.840 176
 76.920 174
 77.000 196
 77.080 184
 77.160 171
 77.240 193
 77.320 187
 77.400 193
 77.480 174
 77.560 196
 77.640 207
 77.720 184
 77.800 201
 77.880 196
 77.960 219
 78.040 201
 78.120 182
 78.200 216
 78.280 201
 78.360 187
 78.440 196
 78.520 213
 78.600 184
 78.680 184
 78.760 163
 78.840 174
 78.920 163
 79.000 169
 79.080 198
 79.160 184
 79.240 193
 79.320 198
 79.400 201
 79.480 196
 79.560 179
 79.640 182
 79.720 231
 79.800 196
 79.880 179
 79.960 204
 80.040 196
 80.120 184
 80.200 201
 80.280 169
 80.360 174
 80.440 272
 80.520 210
 80.600 234
 80.680 219
 80.760 198
 80.840 158
 80.920 228
 81.000 184
 81.080 171
 81.160 187
 81.240 190
 81.320 176
 81.400 144
 81.480 148
 81.560 139
 81.640 163
 81.720 166
 81.800 146
 81.880 151
 81.960 169
 82.040 174
 82.120 163
 82.200 158
 82.280 182
 82.360 182
 82.440 204
 82.520 193
 82.600 193
 82.680 193
 82.760 193
 82.840 193
 82.920 151
 83.000 184
 83.080 161
 83.160 190
 83.240 144
 83.320 184
 83.400 176
 83.480 193
 83.560 166
 83.640 163
 83.720 169
 83.800 158
 83.880 169
 83.960 132
 84.040 158
 84.120 158
 84.200 158
 84.280 176
 84.360 166
 84.440 187
 84.520 169
 84.600 184
 84.680 201
 84.760 169
 84.840 156
 84.920 182
 85.000 166
 85.080 171
 85.160 166
 85.240 176
 85.320 179
 85.400 156
 85.480 176
 85.560 171
 85.640 171
 85.720 156
 85.800 174
 85.880 169
 85.960 158
 86.040 176
 86.120 169
 86.200 174
 86.280 179
 86.360 163
 86.440 158
 86.520 158
 86.600 169
 86.680 148
 86.760 174
 86.840 156
 86.920 148
 87.000 163
 87.080 163
 87.160 163
 87.240 176
 87.320 158
 87.400 174
 87.480 153
 87.560 153
 87.640 182
 87.720 156
 87.800 163
 87.880 161
 87.960 148
 88.040 158
 88.120 136
 88.200 153
 88.280 158
 88.360 153
 88.440 148
 88.520 163
 88.600 176
 88.680 163
 88.760 169
 88.840 148
 88.920 171
 89.000 148
 89.080 163
 89.160 166
 89.240 163
 89.320 156
 89.400 158
 89.480 174
 89.560 148
 89.640 158
 89.720 193
 89.800 219
 89.880 156
 89.960 163
 90.040 176
 90.120 187
 90.200 163
 90.280 161
 90.360 176
 90.440 153
 90.520 148
 90.600 136
 90.680 158
 90.760 148
 90.840 153
 90.920 144
 91.000 156
 91.080 129
 91.160 166
 91.240 156
 91.320 153
 91.400 132
 91.480 151
 91.560 156
 91.640 129
 91.720 176
 91.800 156
 91.880 166
 91.960 134
 92.040 144
 92.120 153
 92.200 118
 92.280 121
 92.360 129
 92.440 136
 92.520 129
 92.600 136
 92.680 166
 92.760 123
 92.840 129
 92.920 146
 93.000 161
 93.080 213
 93.160 201
 93.240 129
 93.320 158
 93.400 156
 93.480 158
 93.560 158
 93.640 153
 93.720 146
 93.800 136
 93.880 148
 93.960 158
 94.040 127
 94.120 144
 94.200 176
 94.280 151
 94.360 132
 94.440 139
 94.520 166
 94.600 146
 94.680 146
 94.760 158
 94.840 132
 94.920 163
 95.000 148
 95.080 148
 95.160 144
 95.240 139
 95.320 144
 95.400 144
 95.480 139
 95.560 153
 95.640 136
 95.720 146
 95.800 136
 95.880 132
 95.960 153
 96.040 136
 96.120 136
 96.200 148
 96.280 151
 96.360 146
 96.440 169
 96.520 141
 96.600 158
 96.680 148
 96.760 148
 96.840 148
 96.920 151
 97.000 144
 97.080 121
 97.160 116
 97.240 148
 97.320 127
 97.400 146
 97.480 125
 97.560 132
 97.640 125
 97.720 136
 97.800 144
 97.880 139
 97.960 121
 98.040 129
 98.120 132
 98.200 153
 98.280 134
 98.360 141
 98.440 116
 98.520 121
 98.600 146
 98.680 125
 98.760 134
 98.840 146
 98.920 141
 99.000 132
 99.080 121
 99.160 146
 99.240 123
 99.320 136
 99.400 123
 99.480 144
 99.560 132
 99.640 134
 99.720 110
 99.800 129
 99.880 125
 99.960 125
100.000 116