File: data/XRD/PHARM1GR.PRN
  5.000 210
  5.080 184
  5.160 201
  5.240 207
  5.320 193
  5.400 169
  5.480 187
  5.560 187
  5.640 196
  5.720 187
  5.800 193
  5.880 179
  5.960 193
  6.040 184
  6.120 201
  6.200 187
  6.280 204
  6.360 204
  6.440 201
  6.520 210
  6.600 285
  6.680 372
  6.760 384
  6.840 585
  6.920 918
  7.000 388
  7.080 282
  7.160 412
  7.240 479
  7.320 538
  7.400 650
  7.480 1095
  7.560 2016
  7.640 3528
  7.720 6177
  7.800 13665
  7.880 40280
  7.960 154920
  8.040 48444
  8.120 2237
  8.200 1075
  8.280 979
  8.360 702
  8.440 219
  8.520 179
  8.600 166
  8.680 127
  8.760 132
  8.840 158
  8.920 116
  9.000 136
  9.080 121
  9.160 139
  9.240 125
  9.320 144
  9.400 153
  9.480 127
  9.560 136
  9.640 125
  9.720 129
  9.800 118
  9.880 148
  9.960 184
 10.040 228
 10.120 265
 10.200 571
 10.280 761
 10.360 1317
 10.440 3192
 10.520 1444
 10.600 198
 10.680 144
 10.760 139
 10.840 141
 10.920 129
 11.000 171
 11.080 169
 11.160 243
 11.240 210
 11.320 380
 11.400 515
 11.480 691
 11.560 906
 11.640 2862
 11.720 1600
 11.800 213
 11.880 184
 11.960 144
 12.040 174
 12.120 139
 12.200 153
 12.280 144
 12.360 193
 12.440 222
 12.520 396
 12.600 640
 12.680 795
 12.760 750
 12.840 306
 12.920 462
 13.000 973
 13.080 4212
 13.160 6938
 13.240 441
 13.320 184
 13.400 153
 13.480 136
 13.560 144
 13.640 144
 13.720 163
 13.800 204
 13.880 268
 13.960 237
 14.040 306
 14.120 488
 14.200 789
 14.280 1421
 14.360 2450
 14.440 2872
 14.520 3931
 14.600 6037
 14.680 2125
 14.760 595
 14.840 249
 14.920 196
 15.000 163
 15.080 182
 15.160 237
 15.240 306
 15.320 404
 15.400 707
 15.480 1232
 15.560 600
 15.640 376
 15.720 580
 15.800 1156
 15.880 3306
 15.960 10120
 16.040 7482
 16.120 992
 16.200 696
 16.280 441
 16.360 334
 16.440 313
 16.520 384
 16.600 723
 16.680 1190
 16.760 1772
 16.840 756
 16.920 357
 17.000 349
 17.080 368
 17.160 259
 17.240 163
 17.320 219
 17.400 228
 17.480 216
 17.560 249
 17.640 372
 17.720 640
 17.800 1115
 17.880 1413
 17.960 718
 18.040 750
 18.120 533
 18.200 488
 18.280 529
 18.360 665
 18.440 1135
 18.520 2061
 18.600 4542
 18.680 10962
 18.760 16384
 18.840 22831
 18.920 3881
 19.000 1030
 19.080 1024
 19.160 823
 19.240 580
 19.320 767
 19.400 1332
 19.480 2246
 19.560 3782
 19.640 2043
 19.720 645
 19.800 510
 19.880 681
 19.960 835
 20.040 812
 20.120 936
 20.200 1436
 20.280 1857
 20.360 2143
 20.440 2199
 20.520 784
 20.600 400
 20.680 620
 20.760 1274
 20.840 1560
 20.920 1857
 21.000 3576
 21.080 3733
 21.160 2106
 21.240 756
 21.320 466
 21.400 552
 21.480 718
 21.560 1069
 21.640 1428
 21.720 1260
 21.800 718
 21.880 729
 21.960 998
 22.040 979
 22.120 615
 22.200 432
 22.280 396
 22.360 436
 22.440 670
 22.520 1190
 22.600 1544
 22.680 424
 22.760 408
 22.840 571
 22.920 829
 23.000 1225
 23.080 1632
 23.160 2704
 23.240 4489
 23.320 7691
 23.400 9196
 23.480 3329
 23.560 1056
 23.640 829
 23.720 784
 23.800 686
 23.880 778
 23.960 1225
 24.040 2450
 24.120 2631
 24.200 1075
 24.280 985
 24.360 1232
 24.440 1102
 24.520 1108
 24.600 1497
 24.680 2440
 24.760 2237
 24.840 942
 24.920 625
 25.000 973
 25.080 1317
 25.160 1369
 25.240 1004
 25.320 800
 25.400 457
 25.480 349
 25.560 441
 25.640 457
 25.720 686
 25.800 973
 25.880 1361
 25.960 1225
 26.040 823
 26.120 620
 26.200 645
 26.280 1069
 26.360 1600
 26.440 2313
 26.520 1797
 26.600 1082
 26.680 723
 26.760 561
 26.840 524
 26.920 660
 27.000 590
 27.080 441
 27.160 488
 27.240 556
 27.320 806
 27.400 600
 27.480 457
 27.560 457
 27.640 497
 27.720 501
 27.800 424
 27.880 436
 27.960 529
 28.040 739
 28.120 1267
 28.200 1528
 28.280 1849
 28.360 1459
 28.440 542
 28.520 441
 28.600 466
 28.680 457
 28.760 299
 28.840 262
 28.920 299
 29.000 380
 29.080 529
 29.160 620
 29.240 1183
 29.320 1962
 29.400 2992
 29.480 3102
 29.560 1383
 29.640 510
 29.720 510
 29.800 453
 29.880 408
 29.960 380
 30.040 428
 30.120 462
 30.200 392
 30.280 302
 30.360 324
 30.440 334
 30.520 470
 30.600 479
 30.680 432
 30.760 470
 30.840 595
 30.920 918
 31.000 1089
 31.080 655
 31.160 501
 31.240 750
 31.320 888
 31.400 696
 31.480 734
 31.560 979
 31.640 1156
 31.720 2007
 31.800 1764
 31.880 1413
 31.960 1536
 32.040 2016
 32.120 3969
 32.200 13971
 32.280 31506
 32.360 24586
 32.440 7796
 32.520 1747
 32.600 1697
 32.680 1346
 32.760 767
 32.840 571
 32.920 615
 33.000 676
 33.080 723
 33.160 936
 33.240 1296
 33.320 2209
 33.400 2401
 33.480 2450
 33.560 2937
 33.640 1909
 33.720 948
 33.800 645
 33.880 630
 33.960 552
 34.040 453
 34.120 492
 34.200 665
 34.280 670
 34.360 524
 34.440 420
 34.520 404
 34.600 424
 34.680 506
 34.760 542
 34.840 650
 34.920 630
 35.000 571
 35.080 416
 35.160 428
 35.240 424
 35.320 542
 35.400 552
 35.480 620
 35.560 610
 35.640 605
 35.720 571
 35.800 745
 35.880 739
 35.960 864
 36.040 948
 36.120 1036
 36.200 784
 36.280 488
 36.360 327
 36.440 364
 36.520 506
 36.600 529
 36.680 501
 36.760 515
 36.840 475
 36.920 462
 37.000 470
 37.080 515
 37.160 556
 37.240 615
 37.320 630
 37.400 479
 37.480 396
 37.560 331
 37.640 345
 37.720 324
 37.800 353
 37.880 376
 37.960 470
 38.040 538
 38.120 600
 38.200 985
 38.280 1024
 38.360 1183
 38.440 1474
 38.520 1592
 38.600 2460
 38.680 2745
 38.760 1806
 38.840 936
 38.920 561
 39.000 441
 39.080 372
 39.160 400
 39.240 449
 39.320 457
 39.400 404
 39.480 576
 39.560 515
 39.640 561
 39.720 823
 39.800 823
 39.880 784
 39.960 846
 40.040 870
 40.120 912
 40.200 681
 40.280 635
 40.360 686
 40.440 729
 40.520 973
 40.600 2450
 40.680 4774
 40.760 3868
 40.840 2025
 40.920 681
 41.000 488
 41.080 436
 41.160 400
 41.240 388
 41.320 338
 41.400 384
 41.480 475
 41.560 605
 41.640 595
 41.720 590
 41.800 600
 41.880 501
 41.960 420
 42.040 400
 42.120 400
 42.200 368
 42.280 313
 42.360 349
 42.440 316
 42.520 342
 42.600 372
 42.680 457
 42.760 492
 42.840 506
 42.920 436
 43.000 384
 43.080 345
 43.160 388
 43.240 412
 43.320 484
 43.400 506
 43.480 542
 43.560 501
 43.640 515
 43.720 620
 43.800 756
 43.880 1102
 43.960 1656
 44.040 2756
 44.120 2199
 44.200 1406
 44.280 561
 44.360 376
 44.440 353
 44.520 331
 44.600 331
 44.680 327
 44.760 299
 44.840 327
 44.920 292
 45.000 338
 45.080 345
 45.160 376
 45.240 309
 45.320 327
 45.400 320
 45.480 388
 45.560 475
 45.640 361
 45.720 345
 45.800 268
 45.880 306
 45.960 420
 46.040 566
 46.120 388
 46.200 309
 46.280 289
 46.360 384
 46.440 380
 46.520 388
 46.600 357
 46.680 327
 46.760 349
 46.840 404
 46.920 470
 47.000 571
 47.080 566
 47.160 640
 47.240 501
 47.320 506
 47.400 353
 47.480 396
 47.560 416
 47.640 457
 47.720 529
 47.800 556
 47.880 519
 47.960 424
 48.040 404
 48.120 404
 48.200 552
 48.280 380
 48.360 380
 48.440 256
 48.520 292
 48.600 324
 48.680 272
 48.760 272
 48.840 252
 48.920 295
 49.000 372
 49.080 404
 49.160 388
 49.240 420
 49.320 510
 49.400 412
 49.480 376
 49.560 302
 49.640 285
 49.720 327
 49.800 334
 49.880 372
 49.960 368
 50.040 364
 50.120 345
 50.200 309
 50.280 295
 50.360 364
 50.440 357
 50.520 349
 50.600 327
 50.680 334
 50.760 357
 50.840 295
 50.920 272
 51.000 237
 51.080 292
 51.160 285
 51.240 302
 51.320 243
 51.400 278
 51.480 234
 51.560 246
 51.640 213
 51.720 256
 51.800 278
 51.880 372
 51.960 561
 52.040 428
 52.120 380
 52.200 268
 52.280 295
 52.360 275
 52.440 278
 52.520 309
 52.600 309
 52.680 368
 52.760 384
 52.840 396
 52.920 515
 53.000 416
 53.080 380
 53.160 313
 53.240 275
 53.320 275
 53.400 268
 53.480 295
 53.560 299
 53.640 295
 53.720 331
 53.800 492
 53.880 665
 53.960 615
 54.040 734
 54.120 533
 54.200 501
 54.280 345
 54.360 313
 54.440 368
 54.520 392
 54.600 432
 54.680 466
 54.760 368
 54.840 372
 54.920 327
 55.000 331
 55.080 259
 55.160 249
 55.240 295
 55.320 306
 55.400 278
 55.480 302
 55.560 275
 55.640 285
 55.720 313
 55.800 265
 55.880 256
 55.960 265
 56.040 295
 56.120 309
 56.200 380
 56.280 313
 56.360 272
 56.440 275
 56.520 256
 56.600 222
 56.680 275
 56.760 246
 56.840 246
 56.920 256
 57.000 252
 57.080 285
 57.160 249
 57.240 275
 57.320 225
 57.400 262
 57.480 237
 57.560 272
 57.640 243
 57.720 249
 57.800 234
 57.880 216
 57.960 243
 58.040 259
 58.120 262
 58.200 299
 58.280 364
 58.360 353
 58.440 388
 58.520 306
 58.600 327
 58.680 246
 58.760 272
 58.840 278
 58.920 207
 59.000 256
 59.080 201
 59.160 265
 59.240 256
 59.320 268
 59.400 228
 59.480 237
 59.560 222
 59.640 234
 59.720 216
 59.800 219
 59.880 213
 59.960 204
 60.040 198
 60.120 219
 60.200 225
 60.280 231
 60.360 231
 60.440 240
 60.520 243
 60.600 249
 60.680 292
 60.760 282
 60.840 275
 60.920 262
 61.000 309
 61.080 334
 61.160 338
 61.240 320
 61.320 295
 61.400 285
 61.480 349
 61.560 278
 61.640 237
 61.720 228
 61.800 201
 61.880 187
 61.960 213
 62.040 174
 62.120 225
 62.200 196
 62.280 240
 62.360 231
 62.440 231
 62.520 228
 62.600 237
 62.680 243
 62.760 262
 62.840 309
 62.920 262
 63.000 222
 63.080 207
 63.160 190
 63.240 207
 63.320 237
 63.400 275
 63.480 306
 63.560 299
 63.640 316
 63.720 262
 63.800 262
 63.880 262
 63.960 388
 64.040 252
 64.120 306
 64.200 231
 64.280 207
 64.360 204
 64.440 240
 64.520 187
 64.600 228
 64.680 184
 64.760 176
 64.840 207
 64.920 184
 65.000 213
 65.080 213
 65.160 275
 65.240 256
 65.320 306
 65.400 342
 65.480 306
 65.560 313
 65.640 256
 65.720 262
 65.800 278
 65.880 306
 65.960 272
 66.040 278
 66.120 364
 66.200 313
 66.280 357
 66.360 404
 66.440 388
 66.520 342
 66.600 320
 66.680 309
 66.760 225
 66.840 249
 66.920 213
 67.000 207
 67.080 179
 67.160 198
 67.240 213
 67.320 179
 67.400 179
 67.480 187
 67.560 237
 67.640 292
 67.720 234
 67.800 246
 67.880 234
 67.960 187
 68.040 156
 68.120 161
 68.200 182
 68.280 169
 68.360 187
 68.440 179
 68.520 198
 68.600 182
 68.680 161
 68.760 213
 68.840 193
 68.920 204
 69.000 213
 69.080 222
 69.160 222
 69.240 213
 69.320 207
 69.400 222
 69.480 182
 69.560 184
 69.640 187
 69.720 184
 69.800 190
 69.880 201
 69.960 198
 70.040 252
 70.120 225
 70.200 272
 70.280 201
 70.360 222
 70.440 198
 70.520 219
 70.600 246
 70.680 268
 70.760 302
 70.840 275
 70.920 246
 71.000 246
 71.080 207
 71.160 213
 71.240 184
 71.320 201
 71.400 196
 71.480 196
 71.560 169
 71.640 179
 71.720 156
 71.800 179
 71.880 190
 71.960 210
 72.040 187
 72.120 184
 72.200 231
 72.280 190
 72.360 207
 72.440 216
 72.520 198
 72.600 176
 72.680 193
 72.760 213
 72.840 174
 72.920 174
 73.000 198
 73.080 163
 73.160 187
 73.240 171
 73.320 182
 73.400 193
 73.480 213
 73.560 201
 73.640 225
 73.720 210
 73.800 198
 73.880 179
 73.960 174
 74.040 153
 74.120 176
 74.200 153
 74.280 174
 74.360 156
 74.440 198
 74.520 156
 74.600 182
 74.680 196
 74.760 198
 74.840 196
 74.920 213
 75.000 240
 75.080 219
 75.160 222
 75.240 243
 75.320 210
 75.400 207
 75.480 228
 75.560 198
 75.640 213
 75.720 184
 75.800 198
 75.880 225
 75.960 246
 76.040 182
 76.120 219
 76.200 198
 76.280 187
 76.360 182
 76.440 207
 76.520 196
 76.600 234
 76.680 210
 76.760 198
 76.840 204
 76.920 190
 77.000 207
 77.080 190
 77.160 176
 77.240 196
 77.320 179
 77.400 176
 77.480 176
 77.560 190
 77.640 222
 77.720 228
 77.800 222
 77.880 219
 77.960 228
 78.040 184
 78.120 201
 78.200 198
 78.280 187
 78.360 196
 78.440 196
 78.520 182
 78.600 174
 78.680 169
 78.760 184
 78.840 179
 78.920 184
 79.000 171
 79.080 198
 79.160 193
 79.240 213
 79.320 201
 79.400 190
 79.480 201
 79.560 262
 79.640 234
 79.720 222
 79.800 219
 79.880 225
 79.960 216
 80.040 176
 80.120 204
 80.200 187
 80.280 302
 80.360 216
 80.440 234
 80.520 252
 80.600 222
 80.680 171
 80.760 166
 80.840 148
 80.920 148
 81.000 184
 81.080 163
 81.160 153
 81.240 158
 81.320 171
 81.400 163
 81.480 136
 81.560 153
 81.640 158
 81.720 182
 81.800 176
 81.880 166
 81.960 158
 82.040 179
 82.120 169
 82.200 207
 82.280 190
 82.360 169
 82.440 193
 82.520 201
 82.600 216
 82.680 201
 82.760 216
 82.840 201
 82.920 190
 83.000 222
 83.080 182
 83.160 182
 83.240 222
 83.320 210
 83.400 182
 83.480 201
 83.560 265
 83.640 213
 83.720 174
 83.800 201
 83.880 174
 83.960 174
 84.040 184
 84.120 158
 84.200 163
 84.280 179
 84.360 153
 84.440 158
 84.520 184
 84.600 187
 84.680 174
 84.760 174
 84.840 153
 84.920 169
 85.000 153
 85.080 176
 85.160 171
 85.240 166
 85.320 193
 85.400 179
 85.480 190
 85.560 176
 85.640 174
 85.720 158
 85.800 179
 85.880 196
 85.960 201
 86.040 184
 86.120 187
 86.200 169
 86.280 161
 86.360 166
 86.440 169
 86.520 163
 86.600 146
 86.680 174
 86.760 171
 86.840 193
 86.920 179
 87.000 174
 87.080 156
 87.160 187
 87.240 151
 87.320 153
 87.400 182
 87.480 184
 87.560 174
 87.640 174
 87.720 174
 87.800 161
 87.880 161
 87.960 169
 88.040 148
 88.120 158
 88.200 161
 88.280 171
 88.360 169
 88.440 125
 88.520 144
 88.600 151
 88.680 179
 88.760 187
 88.840 144
 88.920 156
 89.000 176
 89.080 169
 89.160 146
 89.240 136
 89.320 156
 89.400 148
 89.480 169
 89.560 196
 89.640 156
 89.720 169
 89.800 148
 89.880 171
 89.960 153
 90.040 158
 90.120 129
 90.200 176
 90.280 151
 90.360 141
 90.440 153
 90.520 136
 90.600 184
 90.680 174
 90.760 151
 90.840 174
 90.920 169
 91.000 158
 91.080 153
 91.160 132
 91.240 139
 91.320 144
 91.400 156
 91.480 139
 91.560 144
 91.640 151
 91.720 144
 91.800 136
 91.880 153
 91.960 144
 92.040 144
 92.120 129
 92.200 127
 92.280 146
 92.360 141
 92.440 144
 92.520 121
 92.600 136
 92.680 134
 92.760 151
 92.840 132
 92.920 129
 93.000 148
 93.080 141
 93.160 153
 93.240 153
 93.320 146
 93.400 161
 93.480 136
 93.560 148
 93.640 174
 93.720 166
 93.800 158
 93.880 161
 93.960 169
 94.040 153
 94.120 176
 94.200 153
 94.280 153
 94.360 169
 94.440 148
 94.520 163
 94.600 153
 94.680 151
 94.760 127
 94.840 148
 94.920 144
 95.000 156
 95.080 153
 95.160 148
 95.240 146
 95.320 141
 95.400 144
 95.480 141
 95.560 129
 95.640 127
 95.720 123
 95.800 146
 95.880 148
 95.960 148
 96.040 153
 96.120 158
 96.200 163
 96.280 182
 96.360 153
 96.440 184
 96.520 156
 96.600 163
 96.680 158
 96.760 134
 96.840 153
 96.920 141
 97.000 127
 97.080 121
 97.160 123
 97.240 129
 97.320 153
 97.400 144
 97.480 129
 97.560 141
 97.640 144
 97.720 141
 97.800 161
 97.880 153
 97.960 134
 98.040 144
 98.120 146
 98.200 139
 98.280 129
 98.360 127
 98.440 136
 98.520 148
 98.600 144
 98.680 136
 98.760 123
 98.840 136
 98.920 144
 99.000 134
 99.080 148
 99.160 136
 99.240 141
 99.320 136
 99.400 136
 99.480 134
 99.560 132
 99.640 125
 99.720 121
 99.800 127
 99.880 136
 99.960 116
100.000 141