File: data/XRD/SILICA.PRN
   5.000       912
   5.100       852
   5.200       823
   5.300       784
   5.400       739
   5.500       767
   5.600       686
   5.700       691
   5.800       670
   5.900       600
   6.000       580
   6.100       585
   6.200       590
   6.300       552
   6.400       524
   6.500       576
   6.600       475
   6.700       497
   6.800       501
   6.900       488
   7.000       475
   7.100       449
   7.200       416
   7.300       400
   7.400       412
   7.500       416
   7.600       376
   7.700       388
   7.800       384
   7.900       372
   8.000       349
   8.100       388
   8.200       376
   8.300       349
   8.400       372
   8.500       327
   8.600       338
   8.700       331
   8.800       327
   8.900       309
   9.000       338
   9.100       331
   9.200       306
   9.300       289
   9.400       306
   9.500       302
   9.600       309
   9.700       299
   9.800       268
   9.900       249
  10.000       285
  10.100       285
  10.200       243
  10.300       285
  10.400       285
  10.500       243
  10.600       237
  10.700       272
  10.800       265
  10.900       246
  11.000       256
  11.100       249
  11.200       249
  11.300       243
  11.400       256
  11.500       240
  11.600       256
  11.700       237
  11.800       225
  11.900       252
  12.000       252
  12.100       256
  12.200       240
  12.300       246
  12.400       228
  12.500       240
  12.600       219
  12.700       234
  12.800       259
  12.900       219
  13.000       213
  13.100       246
  13.200       225
  13.300       243
  13.400       252
  13.500       234
  13.600       219
  13.700       240
  13.800       285
  13.900       265
  14.000       268
  14.100       234
  14.200       256
  14.300       275
  14.400       282
  14.500       268
  14.600       240
  14.700       302
  14.800       282
  14.900       289
  15.000       272
  15.100       272
  15.200       268
  15.300       234
  15.400       295
  15.500       320
  15.600       306
  15.700       285
  15.800       313
  15.900       278
  16.000       299
  16.100       345
  16.200       327
  16.300       306
  16.400       309
  16.500       327
  16.600       349
  16.700       334
  16.800       368
  16.900       384
  17.000       380
  17.100       404
  17.200       384
  17.300       408
  17.400       428
  17.500       396
  17.600       404
  17.700       420
  17.800       441
  17.900       484
  18.000       445
  18.100       488
  18.200       479
  18.300       519
  18.400       492
  18.500       488
  18.600       533
  18.700       538
  18.800       605
  18.900       595
  19.000       600
  19.100       600
  19.200       605
  19.300       630
  19.400       665
  19.500       707
  19.600       640
  19.700       640
  19.800       707
  19.900       702
  20.000       756
  20.100       696
  20.200       707
  20.300       800
  20.400       812
  20.500       864
  20.600       789
  20.700       789
  20.800       823
  20.900       817
  21.000       882
  21.100       900
  21.200       846
  21.300       882
  21.400       894
  21.500       852
  21.600       930
  21.700       961
  21.800       930
  21.900       930
  22.000       912
  22.100       900
  22.200       918
  22.300       930
  22.400       973
  22.500       924
  22.600       870
  22.700       906
  22.800       812
  22.900       870
  23.000       876
  23.100       900
  23.200       858
  23.300       858
  23.400       846
  23.500       882
  23.600       829
  23.700       829
  23.800       784
  23.900       778
  24.000       729
  24.100       852
  24.200       795
  24.300       729
  24.400       750
  24.500       756
  24.600       718
  24.700       686
  24.800       676
  24.900       686
  25.000       660
  25.100       610
  25.200       630
  25.300       610
  25.400       660
  25.500       620
  25.600       576
  25.700       529
  25.800       542
  25.900       510
  26.000       552
  26.100       524
  26.200       524
  26.300       519
  26.400       475
  26.500       547
  26.600       492
  26.700       479
  26.800       506
  26.900       497
  27.000       479
  27.100       441
  27.200       412
  27.300       432
  27.400       445
  27.500       428
  27.600       408
  27.700       424
  27.800       404
  27.900       400
  28.000       412
  28.100       408
  28.200       380
  28.300       368
  28.400       353
  28.500       392
  28.600       368
  28.700       353
  28.800       380
  28.900       361
  29.000       357
  29.100       331
  29.200       334
  29.300       349
  29.400       316
  29.500       313
  29.600       299
  29.700       306
  29.800       306
  29.900       309
  30.000       295
  30.100       324
  30.200       275
  30.300       313
  30.400       292
  30.500       262
  30.600       289
  30.700       268
  30.800       306
  30.900       292
  31.000       292
  31.100       292
  31.200       262
  31.300       268
  31.400       275
  31.500       272
  31.600       272
  31.700       252
  31.800       268
  31.900       265
  32.000       275
  32.100       292
  32.200       259
  32.300       256
  32.400       246
  32.500       268
  32.600       259
  32.700       275
  32.800       225
  32.900       225
  33.000       256
  33.100       282
  33.200       256
  33.300       243
  33.400       222
  33.500       219
  33.600       228
  33.700       246
  33.800       249
  33.900       243
  34.000       216
  34.100       213
  34.200       231
  34.300       256
  34.400       213
  34.500       219
  34.600       249
  34.700       222
  34.800       213
  34.900       213
  35.000       222
  35.100       204
  35.200       207
  35.300       222
  35.400       225
  35.500       216
  35.600       204
  35.700       193
  35.800       219
  35.900       193
  36.000       171
  36.100       216
  36.200       219
  36.300       210
  36.400       184
  36.500       193
  36.600       193
  36.700       179
  36.800       210
  36.900       187
  37.000       198
  37.100       193
  37.200       198
  37.300       193
  37.400       182
  37.500       176
  37.600       204
  37.700       207
  37.800       176
  37.900       182
  38.000       193
  38.100       171
  38.200       196
  38.300       184
  38.400       198
  38.500       184
  38.600       193
  38.700       179
  38.800       163
  38.900       179
  39.000       184
  39.100       161
  39.200       163
  39.300       151
  39.400       171
  39.500       193
  39.600       174
  39.700       174
  39.800       158
  39.900       169
  40.000       153
  40.100       163
  40.200       148
  40.300       163
  40.400       166
  40.500       153
  40.600       158
  40.700       148
  40.800       174
  40.900       163
  41.000       148
  41.100       148
  41.200       153
  41.300       151
  41.400       148
  41.500       136
  41.600       179
  41.700       146
  41.800       156
  41.900       156
  42.000       156
  42.100       184
  42.200       144
  42.300       139
  42.400       169
  42.500       158
  42.600       171
  42.700       166
  42.800       174
  42.900       171
  43.000       148
  43.100       174
  43.200       153
  43.300       151
  43.400       163
  43.500       141
  43.600       166
  43.700       174
  43.800       171
  43.900       174
  44.000       174
  44.100       176
  44.200       153
  44.300       161
  44.400       171
  44.500       179
  44.600       169
  44.700       158
  44.800       179
  44.900       179
  45.000       139
  45.100       169
  45.200       169
  45.300       176
  45.400       148
  45.500       158
  45.600       161
  45.700       141
  45.800       156
  45.900       158
  46.000       174
  46.100       151
  46.200       179
  46.300       171
  46.400       169
  46.500       179
  46.600       158
  46.700       158
  46.800       169
  46.900       146
  47.000       156
  47.100       166
  47.200       161
  47.300       169
  47.400       179
  47.500       176
  47.600       198
  47.700       144
  47.800       153
  47.900       158
  48.000       153
  48.100       161
  48.200       174
  48.300       163
  48.400       163
  48.500       146
  48.600       182
  48.700       144
  48.800       153
  48.900       182
  49.000       158
  49.100       161
  49.200       148
  49.300       171
  49.400       153
  49.500       166
  49.600       169
  49.700       174
  49.800       148
  49.900       153
  50.000       141
  50.100       144
  50.200       151
  50.300       153
  50.400       161
  50.500       163
  50.600       151
  50.700       144
  50.800       136
  50.900       158
  51.000       153
  51.100       169
  51.200       156
  51.300       141
  51.400       141
  51.500       161
  51.600       158
  51.700       148
  51.800       148
  51.900       144
  52.000       132
  52.100       148
  52.200       127
  52.300       141
  52.400       151
  52.500       146
  52.600       151
  52.700       118
  52.800       169
  52.900       129
  53.000       158
  53.100       139
  53.200       148
  53.300       158
  53.400       121
  53.500       136
  53.600       106
  53.700       121
  53.800       151
  53.900       134
  54.000       136
  54.100       163
  54.200       136
  54.300       123
  54.400       125
  54.500       158
  54.600       148
  54.700       139
  54.800       148
  54.900       141
  55.000       129
  55.100       121
  55.200       146
  55.300       136
  55.400       136
  55.500       139
  55.600       144
  55.700       125
  55.800       139
  55.900       136
  56.000       132
  56.100       139
  56.200       132
  56.300       136
  56.400       123
  56.500       129
  56.600       163
  56.700       136
  56.800       129
  56.900       148
  57.000       141
  57.100       132
  57.200       134
  57.300       132
  57.400       151
  57.500       141
  57.600       127
  57.700       161
  57.800       132
  57.900       127
  58.000       156
  58.100       141
  58.200       163
  58.300       153
  58.400       153
  58.500       144
  58.600       116
  58.700       146
  58.800       156
  58.900       139
  59.000       134
  59.100       169
  59.200       139
  59.300       127
  59.400       144
  59.500       148
  59.600       139
  59.700       125
  59.800       127
  59.900       146
  60.000       129
  60.100       134
  60.200       146
  60.300       144
  60.400       132
  60.500       141
  60.600       123
  60.700       151
  60.800       153
  60.900       123
  61.000       134
  61.100       144
  61.200       132
  61.300       144
  61.400       153
  61.500       144
  61.600       156
  61.700       136
  61.800       134
  61.900       141
  62.000       158
  62.100       148
  62.200       132
  62.300       139
  62.400       163
  62.500       132
  62.600       166
  62.700       163
  62.800       163
  62.900       158
  63.000       166
  63.100       151
  63.200       136
  63.300       148
  63.400       144
  63.500       129
  63.600       151
  63.700       163
  63.800       163
  63.900       132
  64.000       161
  64.100       148
  64.200       141
  64.300       158
  64.400       153
  64.500       125
  64.600       146
  64.700       148
  64.800       139
  64.900       158
  65.000       156
  65.100       161
  65.200       156
  65.300       148
  65.400       141
  65.500       129
  65.600       148
  65.700       151
  65.800       171
  65.900       166
  66.000       144
  66.100       148
  66.200       134
  66.300       144
  66.400       118
  66.500       151
  66.600       158
  66.700       114
  66.800       144
  66.900       136
  67.000       132
  67.100       136
  67.200       169
  67.300       132
  67.400       158
  67.500       134
  67.600       139
  67.700       141
  67.800       158
  67.900       148
  68.000       141
  68.100       112
  68.200       151
  68.300       136
  68.400       151
  68.500       114
  68.600       163
  68.700       144
  68.800       148
  68.900       146
  69.000       129
  69.100       139
  69.200       136
  69.300       136
  69.400       112
  69.500       148
  69.600       146
  69.700       129
  69.800       114
  69.900       156
  70.000       129
  70.100       134
  70.200       146
  70.300       132
  70.400       134
  70.500       116
  70.600       116
  70.700       127
  70.800       108
  70.900       141
  71.000       121
  71.100       134
  71.200       123
  71.300       136
  71.400       132
  71.500       123
  71.600       123
  71.700       136
  71.800       146
  71.900       136
  72.000       136
  72.100       141
  72.200       125
  72.300       123
  72.400       144
  72.500       116
  72.600       132
  72.700       110
  72.800       108
  72.900       123
  73.000       139
  73.100       153
  73.200       129
  73.300       121
  73.400       116
  73.500       134
  73.600       127
  73.700       116
  73.800       121
  73.900       118
  74.000       112
  74.100       134
  74.200       132
  74.300       123
  74.400       129
  74.500       139
  74.600       108
  74.700       134
  74.800       127
  74.900       127
  75.000       144
  75.100       121
  75.200       123
  75.300       116
  75.400       106
  75.500       125
  75.600       108
  75.700       123
  75.800       114
  75.900       129
  76.000       125
  76.100       146
  76.200       136
  76.300       100
  76.400       108
  76.500       141
  76.600       129
  76.700       125
  76.800       118
  76.900       129
  77.000       134
  77.100       104
  77.200       141
  77.300       151
  77.400       134
  77.500       129
  77.600       146
  77.700       146
  77.800       144
  77.900       132
  78.000       125
  78.100       125
  78.200       139
  78.300       134
  78.400       146
  78.500       146
  78.600       136
  78.700       129
  78.800       121
  78.900       127
  79.000       116
  79.100       129
  79.200       139
  79.300       121
  79.400       144
  79.500       125
  79.600       134
  79.700       118
  79.800       123
  79.900       132
  80.000       118
  80.100       129
  80.200       114
  80.300       114
  80.400       123
  80.500       127
  80.600       129
  80.700       110
  80.800       136
  80.900       112
  81.000       112
  81.100       123
  81.200       108
  81.300       129
  81.400       136
  81.500       106
  81.600       121
  81.700       136
  81.800       129
  81.900       104
  82.000       114
  82.100       116
  82.200       114
  82.300       110
  82.400        90
  82.500       129
  82.600       100
  82.700       112
  82.800       104
  82.900        94
  83.000       112
  83.100        79
  83.200        96
  83.300       102
  83.400        98
  83.500        90
  83.600        86
  83.700       100
  83.800        82
  83.900       100
  84.000        98
  84.100       100
  84.200        72
  84.300        86
  84.400        98
  84.500        79
  84.600        90
  84.700        86
  84.800        77
  84.900        92
  85.000        77
  85.100        90
  85.200       100
  85.300        90
  85.400        75
  85.500        92
  85.600       100
  85.700        70
  85.800        82
  85.900        70
  86.000        77
  86.100        82
  86.200        96
  86.300        86
  86.400        64
  86.500        84
  86.600        73
  86.700        77
  86.800        82
  86.900        90
  87.000        84
  87.100        77
  87.200        56
  87.300        77
  87.400        82
  87.500        68
  87.600        81
  87.700        67
  87.800        67
  87.900        72
  88.000        59
  88.100        67
  88.200        68
  88.300        77
  88.400        75
  88.500        70
  88.600        75
  88.700        59
  88.800        77
  88.900        68
  89.000        60
  89.100        68
  89.200        56
  89.300        62
  89.400        72
  89.500        70
  89.600        54
  89.700        75
  89.800        72
  89.900        56
  90.000        62
  90.100        75
  90.200        60
  90.300        54
  90.400        79
  90.500        65
  90.600        65
  90.700        77
  90.800        60
  90.900        53
  91.000        62
  91.100        59
  91.200        59
  91.300        70
  91.400        64
  91.500        51
  91.600        59
  91.700        72
  91.800        72
  91.900        68
  92.000        73
  92.100        70
  92.200        59
  92.300        57
  92.400        59
  92.500        60
  92.600        53
  92.700        57
  92.800        56
  92.900        60
  93.000        68
  93.100        50
  93.200        67
  93.300        53
  93.400        65
  93.500        60
  93.600        56
  93.700        50
  93.800        62
  93.900        62
  94.000        82
  94.100        67
  94.200        65
  94.300        53
  94.400        68
  94.500        56
  94.600        77
  94.700        62
  94.800        60
  94.900        59
  95.000        64
  95.100        62
  95.200        75
  95.300        57
  95.400        57
  95.500        54
  95.600        67
  95.700        56
  95.800        59
  95.900        49
  96.000        56
  96.100        53
  96.200        50
  96.300        53
  96.400        70
  96.500        64
  96.600        49
  96.700        75
  96.800        57
  96.900        59
  97.000        67
  97.100        56
  97.200        70
  97.300        67
  97.400        59
  97.500        70
  97.600        57
  97.700        56
  97.800        77
  97.900        44
  98.000        70
  98.100        53
  98.200        75
  98.300        72
  98.400        72
  98.500        70
  98.600        72
  98.700        59
  98.800        60
  98.900        60
  99.000        62
  99.100        75
  99.200        65
  99.300        62
  99.400        72
  99.500        70
  99.600        79
  99.700        67
  99.800        82
  99.900        62
 100.000        57
 100.100        65
 100.200        64
 100.300        62
 100.400        75
 100.500        75
 100.600        59
 100.700        67
 100.800        54
 100.900        60
 101.000        59
 101.100        47
 101.200        62
 101.300        62
 101.400        72
 101.500        77
 101.600        65
 101.700        56
 101.800        56
 101.900        64
 102.000        67
 102.100        60
 102.200        54
 102.300        62
 102.400        56
 102.500        72
 102.600        65
 102.700        56
 102.800        67
 102.900        81
 103.000        60
 103.100        59
 103.200        57
 103.300        62
 103.400        68
 103.500        65
 103.600        82
 103.700        82
 103.800        65
 103.900        62
 104.000        72
 104.100        54
 104.200        62
 104.300        57
 104.400        47
 104.500        75
 104.600        67
 104.700        49
 104.800        65
 104.900        65
 105.000        79
 105.100        77
 105.200        77
 105.300        59
 105.400        62
 105.500        67
 105.600        56
 105.700        62
 105.800        62
 105.900        60
 106.000        79
 106.100        62
 106.200        81
 106.300        77
 106.400        64
 106.500        64
 106.600        62
 106.700        62
 106.800        62
 106.900        65
 107.000        62
 107.100        70
 107.200        72
 107.300        57
 107.400        59
 107.500        57
 107.600        62
 107.700        72
 107.800        65
 107.900        64
 108.000        75
 108.100        67
 108.200        60
 108.300        56
 108.400        53
 108.500        53
 108.600        65
 108.700        67
 108.800        67
 108.900        59
 109.000        53
 109.100        53
 109.200        62
 109.300        59
 109.400        56
 109.500        68
 109.600        65
 109.700        79
 109.800        51
 109.900        64
 110.000        70
 110.100        56
 110.200        68
 110.300        73
 110.400        72
 110.500        56
 110.600        59
 110.700        68
 110.800        54
 110.900        56
 111.000        62
 111.100        70
 111.200        65
 111.300        60
 111.400        53
 111.500        62
 111.600        72
 111.700        67
 111.800        60
 111.900        57
 112.000        68
 112.100        59
 112.200        67
 112.300        51
 112.400        62
 112.500        62
 112.600        64
 112.700        68
 112.800        53
 112.900        65
 113.000        65
 113.100        49
 113.200        65
 113.300        70
 113.400        46
 113.500        73
 113.600        67
 113.700        72
 113.800        56
 113.900        59
 114.000        79
 114.100        56
 114.200        62
 114.300        62
 114.400        56
 114.500        59
 114.600        79
 114.700        65
 114.800        72
 114.900        62
 115.000        68
 115.100        75
 115.200        38
 115.300        59
 115.400        73
 115.500        65
 115.600        53
 115.700        65
 115.800        72
 115.900        53
 116.000        53
 116.100        62
 116.200        62
 116.300        65
 116.400        60
 116.500        57
 116.600        56
 116.700        56
 116.800        67
 116.900        79
 117.000        59
 117.100        53
 117.200        62
 117.300        62
 117.400        59
 117.500        70
 117.600        67
 117.700        77
 117.800        72
 117.900        59
 118.000        59
 118.100        64
 118.200        70
 118.300        53
 118.400        56
 118.500        51
 118.600        59
 118.700        65
 118.800        60
 118.900        65
 119.000        62
 119.100        70
 119.200        60
 119.300        44
 119.400        70
 119.500        50
 119.600        62
 119.700        62
 119.800        51
 119.900        62
 120.000        49
 120.100        49
 120.200        60
 120.300        68
 120.400        53
 120.500        56
 120.600        60
 120.700        59
 120.800        54
 120.900        64
 121.000        47
 121.100        64
 121.200        77
 121.300        67
 121.400        73
 121.500        56
 121.600        57
 121.700        53
 121.800        65
 121.900        47
 122.000        54
 122.100        56
 122.200        67
 122.300        65
 122.400        70
 122.500        53
 122.600        65
 122.700        65
 122.800        57
 122.900        82
 123.000        49
 123.100        53
 123.200        65
 123.300        67
 123.400        62
 123.500        62
 123.600        62
 123.700        56
 123.800        51
 123.900        54
 124.000        59
 124.100        56
 124.200        68
 124.300        57
 124.400        70
 124.500        50
 124.600        56
 124.700        57
 124.800        60
 124.900        62
 125.000        56
 125.100        62
 125.200        72
 125.300        57
 125.400        57
 125.500        67
 125.600        56
 125.700        49
 125.800        56
 125.900        56
 126.000        56
 126.100        49
 126.200        82
 126.300        59
 126.400        67
 126.500        62
 126.600        68
 126.700        40
 126.800        54
 126.900        53
 127.000        57
 127.100        54
 127.200        56
 127.300        49
 127.400        68
 127.500        47
 127.600        79
 127.700        56
 127.800        62
 127.900        79
 128.000        67
 128.100        56
 128.200        75
 128.300        59
 128.400        75
 128.500        56
 128.600        56
 128.700        62
 128.800        77
 128.900        77
 129.000        67
 129.100        50
 129.200        65
 129.300        50
 129.400        50
 129.500        59
 129.600        56
 129.700        62
 129.800        53
 129.900        51
 130.000        60
 130.100        65
 130.200        51
 130.300        72
 130.400        53
 130.500        57
 130.600        59
 130.700        60
 130.800        59
 130.900        43
 131.000        68
 131.100        67
 131.200        65
 131.300        53
 131.400        62
 131.500        65
 131.600        68
 131.700        77
 131.800        59
 131.900        51
 132.000        50
 132.100        62
 132.200        64
 132.300        67
 132.400        56
 132.500        54
 132.600        65
 132.700        57
 132.800        72
 132.900        56
 133.000        53
 133.100        67
 133.200        77
 133.300        59
 133.400        53
 133.500        59
 133.600        60
 133.700        59
 133.800        65
 133.900        57
 134.000        51
 134.100        53
 134.200        72
 134.300        57
 134.400        62
 134.500        65
 134.600        75
 134.700        64
 134.800        70
 134.900        79
 135.000        59
 135.100        68
 135.200        67
 135.300        77
 135.400        59
 135.500        59
 135.600        57
 135.700        60
 135.800        67
 135.900        73
 136.000        49
 136.100        51
 136.200        82
 136.300        81
 136.400        65
 136.500        51
 136.600        60
 136.700        65
 136.800        54
 136.900        59
 137.000        65
 137.100        62
 137.200        70
 137.300        53
 137.400        68
 137.500        60
 137.600        64
 137.700        77
 137.800        67
 137.900        65
 138.000        75
 138.100        53
 138.200        56
 138.300        62
 138.400        79
 138.500        68
 138.600        65
 138.700        70
 138.800        70
 138.900        62
 139.000        94
 139.100        53
 139.200        79
 139.300        75
 139.400        57
 139.500        70
 139.600        82
 139.700        60
 139.800        57
 139.900        75
 140.000        92
 140.100        70
 140.200        70
 140.300        70
 140.400        65
 140.500        59
 140.600        67
 140.700        73
 140.800        77
 140.900        62
 141.000        65
 141.100        67
 141.200        72
 141.300        70
 141.400        86
 141.500        70
 141.600        64
 141.700        84
 141.800        68
 141.900        68
 142.000        77
 142.100        75
 142.200        59
 142.300        82
 142.400        75
 142.500        72
 142.600        59
 142.700        62
 142.800        88
 142.900        79
 143.000        64
 143.100        72
 143.200        72
 143.300        73
 143.400        70
 143.500        62
 143.600        67
 143.700        70
 143.800        70
 143.900        64
 144.000        67
 144.100        59
 144.200        77
 144.300        82
 144.400        72
 144.500        68
 144.600        68
 144.700        82
 144.800        70
 144.900        75
 145.000        77
 145.100        82
 145.200        67
 145.300        77
 145.400        62
 145.500        82
 145.600        77
 145.700        65
 145.800        62
 145.900        70
 146.000        79
 146.100        77
 146.200        82
 146.300        70
 146.400        82
 146.500        75
 146.600        57
 146.700        79
 146.800        72
 146.900        73
 147.000        84
 147.100        77
 147.200        77
 147.300        92
 147.400        67
 147.500        65
 147.600        79
 147.700        70
 147.800        73
 147.900        70
 148.000        81
 148.100        72
 148.200        77
 148.300        77
 148.400        86
 148.500        84
 148.600        65
 148.700        77
 148.800        62
 148.900        90
 149.000        79
 149.100        84
 149.200        75
 149.300        94
 149.400        67
 149.500        86
 149.600        77
 149.700        75
 149.800        81
 149.900        79
 150.000        81