File: data/XRD/STARCH.PRN
  5.000 392
  5.080 388
  5.160 400
  5.240 396
  5.320 432
  5.400 416
  5.480 420
  5.560 416
  5.640 416
  5.720 412
  5.800 462
  5.880 424
  5.960 412
  6.040 416
  6.120 436
  6.200 428
  6.280 441
  6.360 445
  6.440 484
  6.520 449
  6.600 475
  6.680 484
  6.760 501
  6.840 462
  6.920 488
  7.000 510
  7.080 497
  7.160 492
  7.240 576
  7.320 538
  7.400 538
  7.480 510
  7.560 595
  7.640 552
  7.720 571
  7.800 585
  7.880 566
  7.960 561
  8.040 580
  8.120 542
  8.200 571
  8.280 590
  8.360 615
  8.440 610
  8.520 635
  8.600 625
  8.680 635
  8.760 635
  8.840 620
  8.920 635
  9.000 640
  9.080 686
  9.160 665
  9.240 676
  9.320 610
  9.400 691
  9.480 676
  9.560 734
  9.640 745
  9.720 756
  9.800 829
  9.880 745
  9.960 795
 10.040 750
 10.120 761
 10.200 812
 10.280 852
 10.360 841
 10.440 817
 10.520 806
 10.600 852
 10.680 876
 10.760 888
 10.840 900
 10.920 930
 11.000 876
 11.080 912
 11.160 979
 11.240 1004
 11.320 998
 11.400 1043
 11.480 1011
 11.560 1030
 11.640 1102
 11.720 1011
 11.800 973
 11.880 1049
 11.960 1017
 12.040 1102
 12.120 1095
 12.200 1102
 12.280 1122
 12.360 1225
 12.440 1274
 12.520 1218
 12.600 1190
 12.680 1274
 12.760 1232
 12.840 1288
 12.920 1288
 13.000 1310
 13.080 1281
 13.160 1346
 13.240 1197
 13.320 1288
 13.400 1281
 13.480 1317
 13.560 1288
 13.640 1354
 13.720 1296
 13.800 1339
 13.880 1324
 13.960 1361
 14.040 1376
 14.120 1459
 14.200 1369
 14.280 1444
 14.360 1521
 14.440 1536
 14.520 1552
 14.600 1497
 14.680 1656
 14.760 1664
 14.840 1722
 14.920 1713
 15.000 1713
 15.080 1722
 15.160 1697
 15.240 1747
 15.320 1730
 15.400 1722
 15.480 1697
 15.560 1747
 15.640 1713
 15.720 1713
 15.800 1738
 15.880 1730
 15.960 1664
 16.040 1764
 16.120 1722
 16.200 1713
 16.280 1664
 16.360 1764
 16.440 1840
 16.520 1857
 16.600 1866
 16.680 1936
 16.760 1918
 16.840 1989
 16.920 1944
 17.000 1980
 17.080 2016
 17.160 2116
 17.240 2070
 17.320 1971
 17.400 2007
 17.480 2016
 17.560 1927
 17.640 2007
 17.720 1918
 17.800 2016
 17.880 2016
 17.960 2052
 18.040 2125
 18.120 2061
 18.200 2061
 18.280 2025
 18.360 2034
 18.440 1971
 18.520 1874
 18.600 1980
 18.680 1883
 18.760 1849
 18.840 1892
 18.920 1789
 19.000 1849
 19.080 1840
 19.160 1772
 19.240 1840
 19.320 1823
 19.400 1806
 19.480 1849
 19.560 1918
 19.640 1927
 19.720 1927
 19.800 1953
 19.880 1962
 19.960 1849
 20.040 1831
 20.120 1814
 20.200 1755
 20.280 1840
 20.360 1722
 20.440 1814
 20.520 1713
 20.600 1664
 20.680 1722
 20.760 1648
 20.840 1689
 20.920 1584
 21.000 1705
 21.080 1600
 21.160 1624
 21.240 1616
 21.320 1616
 21.400 1648
 21.480 1616
 21.560 1528
 21.640 1600
 21.720 1536
 21.800 1513
 21.880 1536
 21.960 1600
 22.040 1568
 22.120 1608
 22.200 1608
 22.280 1624
 22.360 1536
 22.440 1616
 22.520 1664
 22.600 1722
 22.680 1608
 22.760 1640
 22.840 1592
 22.920 1664
 23.000 1632
 23.080 1656
 23.160 1584
 23.240 1552
 23.320 1489
 23.400 1466
 23.480 1505
 23.560 1421
 23.640 1398
 23.720 1436
 23.800 1369
 23.880 1376
 23.960 1324
 24.040 1317
 24.120 1260
 24.200 1339
 24.280 1281
 24.360 1288
 24.440 1246
 24.520 1253
 24.600 1128
 24.680 1176
 24.760 1232
 24.840 1162
 24.920 1149
 25.000 1115
 25.080 1095
 25.160 1069
 25.240 1102
 25.320 1075
 25.400 1049
 25.480 1043
 25.560 1049
 25.640 1102
 25.720 1049
 25.800 1108
 25.880 979
 25.960 973
 26.040 1036
 26.120 1069
 26.200 973
 26.280 961
 26.360 1011
 26.440 1024
 26.520 961
 26.600 985
 26.680 1043
 26.760 985
 26.840 998
 26.920 985
 27.000 961
 27.080 973
 27.160 924
 27.240 918
 27.320 973
 27.400 912
 27.480 894
 27.560 894
 27.640 942
 27.720 954
 27.800 858
 27.880 948
 27.960 876
 28.040 888
 28.120 900
 28.200 900
 28.280 900
 28.360 961
 28.440 852
 28.520 870
 28.600 906
 28.680 864
 28.760 918
 28.840 942
 28.920 918
 29.000 870
 29.080 864
 29.160 876
 29.240 882
 29.320 835
 29.400 882
 29.480 918
 29.560 900
 29.640 864
 29.720 870
 29.800 924
 29.880 936
 29.960 942
 30.040 936
 30.120 924
 30.200 924
 30.280 894
 30.360 912
 30.440 930
 30.520 906
 30.600 924
 30.680 918
 30.760 852
 30.840 852
 30.920 930
 31.000 918
 31.080 924
 31.160 876
 31.240 912
 31.320 912
 31.400 870
 31.480 876
 31.560 870
 31.640 882
 31.720 882
 31.800 852
 31.880 876
 31.960 948
 32.040 912
 32.120 864
 32.200 870
 32.280 858
 32.360 906
 32.440 888
 32.520 906
 32.600 894
 32.680 882
 32.760 858
 32.840 936
 32.920 894
 33.000 894
 33.080 924
 33.160 894
 33.240 846
 33.320 973
 33.400 894
 33.480 864
 33.560 918
 33.640 912
 33.720 918
 33.800 894
 33.880 906
 33.960 906
 34.040 906
 34.120 992
 34.200 858
 34.280 858
 34.360 906
 34.440 882
 34.520 894
 34.600 930
 34.680 882
 34.760 888
 34.840 882
 34.920 852
 35.000 936
 35.080 835
 35.160 894
 35.240 864
 35.320 876
 35.400 888
 35.480 870
 35.560 894
 35.640 823
 35.720 864
 35.800 852
 35.880 835
 35.960 841
 36.040 823
 36.120 817
 36.200 829
 36.280 876
 36.360 784
 36.440 846
 36.520 835
 36.600 784
 36.680 806
 36.760 841
 36.840 852
 36.920 835
 37.000 823
 37.080 835
 37.160 846
 37.240 812
 37.320 806
 37.400 858
 37.480 846
 37.560 841
 37.640 772
 37.720 812
 37.800 806
 37.880 795
 37.960 784
 38.040 756
 38.120 812
 38.200 812
 38.280 800
 38.360 784
 38.440 761
 38.520 812
 38.600 772
 38.680 784
 38.760 739
 38.840 761
 38.920 812
 39.000 789
 39.080 739
 39.160 767
 39.240 756
 39.320 718
 39.400 734
 39.480 745
 39.560 750
 39.640 739
 39.720 745
 39.800 691
 39.880 696
 39.960 718
 40.040 745
 40.120 691
 40.200 691
 40.280 750
 40.360 681
 40.440 696
 40.520 707
 40.600 702
 40.680 681
 40.760 707
 40.840 655
 40.920 681
 41.000 686
 41.080 660
 41.160 696
 41.240 670
 41.320 676
 41.400 686
 41.480 681
 41.560 712
 41.640 681
 41.720 635
 41.800 625
 41.880 655
 41.960 645
 42.040 676
 42.120 635
 42.200 660
 42.280 645
 42.360 660
 42.440 670
 42.520 635
 42.600 640
 42.680 660
 42.760 635
 42.840 660
 42.920 615
 43.000 635
 43.080 635
 43.160 635
 43.240 640
 43.320 650
 43.400 655
 43.480 691
 43.560 645
 43.640 665
 43.720 650
 43.800 580
 43.880 595
 43.960 640
 44.040 635
 44.120 640
 44.200 635
 44.280 645
 44.360 650
 44.440 576
 44.520 600
 44.600 630
 44.680 585
 44.760 670
 44.840 635
 44.920 670
 45.000 600
 45.080 585
 45.160 561
 45.240 600
 45.320 635
 45.400 590
 45.480 576
 45.560 595
 45.640 576
 45.720 600
 45.800 547
 45.880 600
 45.960 625
 46.040 605
 46.120 585
 46.200 571
 46.280 585
 46.360 585
 46.440 595
 46.520 556
 46.600 600
 46.680 580
 46.760 610
 46.840 561
 46.920 590
 47.000 615
 47.080 595
 47.160 571
 47.240 605
 47.320 595
 47.400 580
 47.480 552
 47.560 552
 47.640 576
 47.720 561
 47.800 552
 47.880 538
 47.960 576
 48.040 561
 48.120 556
 48.200 566
 48.280 497
 48.360 595
 48.440 510
 48.520 576
 48.600 524
 48.680 542
 48.760 519
 48.840 497
 48.920 533
 49.000 524
 49.080 470
 49.160 453
 49.240 510
 49.320 501
 49.400 506
 49.480 515
 49.560 501
 49.640 484
 49.720 470
 49.800 466
 49.880 441
 49.960 515
 50.040 488
 50.120 492
 50.200 445
 50.280 475
 50.360 488
 50.440 424
 50.520 457
 50.600 479
 50.680 449
 50.760 470
 50.840 428
 50.920 457
 51.000 428
 51.080 470
 51.160 449
 51.240 457
 51.320 416
 51.400 436
 51.480 445
 51.560 388
 51.640 392
 51.720 462
 51.800 384
 51.880 388
 51.960 408
 52.040 420
 52.120 416
 52.200 408
 52.280 392
 52.360 449
 52.440 412
 52.520 408
 52.600 416
 52.680 392
 52.760 384
 52.840 368
 52.920 372
 53.000 408
 53.080 412
 53.160 404
 53.240 361
 53.320 388
 53.400 376
 53.480 396
 53.560 368
 53.640 416
 53.720 376
 53.800 357
 53.880 364
 53.960 327
 54.040 357
 54.120 324
 54.200 372
 54.280 384
 54.360 361
 54.440 368
 54.520 353
 54.600 349
 54.680 357
 54.760 320
 54.840 353
 54.920 353
 55.000 331
 55.080 353
 55.160 320
 55.240 316
 55.320 349
 55.400 342
 55.480 361
 55.560 306
 55.640 334
 55.720 306
 55.800 324
 55.880 306
 55.960 320
 56.040 306
 56.120 327
 56.200 353
 56.280 313
 56.360 331
 56.440 320
 56.520 302
 56.600 292
 56.680 285
 56.760 302
 56.840 342
 56.920 313
 57.000 295
 57.080 285
 57.160 313
 57.240 278
 57.320 313
 57.400 302
 57.480 292
 57.560 285
 57.640 295
 57.720 285
 57.800 306
 57.880 299
 57.960 292
 58.040 292
 58.120 306
 58.200 285
 58.280 272
 58.360 275
 58.440 278
 58.520 268
 58.600 292
 58.680 275
 58.760 295
 58.840 289
 58.920 299
 59.000 285
 59.080 313
 59.160 278
 59.240 282
 59.320 309
 59.400 249
 59.480 275
 59.560 295
 59.640 268
 59.720 289
 59.800 252
 59.880 265
 59.960 249
 60.040 272
 60.120 262
 60.200 292
 60.280 282
 60.360 262
 60.440 259
 60.520 240
 60.600 275
 60.680 275
 60.760 243
 60.840 246
 60.920 246
 61.000 246
 61.080 256
 61.160 268
 61.240 275
 61.320 295
 61.400 256
 61.480 252
 61.560 295
 61.640 240
 61.720 237
 61.800 259
 61.880 246
 61.960 262
 62.040 246
 62.120 268
 62.200 262
 62.280 265
 62.360 246
 62.440 252
 62.520 256
 62.600 228
 62.680 246
 62.760 268
 62.840 243
 62.920 231
 63.000 237
 63.080 234
 63.160 262
 63.240 246
 63.320 240
 63.400 240
 63.480 256
 63.560 225
 63.640 213
 63.720 256
 63.800 272
 63.880 252
 63.960 231
 64.040 252
 64.120 246
 64.200 246
 64.280 243
 64.360 246
 64.440 246
 64.520 243
 64.600 265
 64.680 256
 64.760 249
 64.840 225
 64.920 234
 65.000 225
 65.080 225
 65.160 259
 65.240 228
 65.320 262
 65.400 228
 65.480 243
 65.560 216
 65.640 231
 65.720 243
 65.800 204
 65.880 265
 65.960 240
 66.040 234
 66.120 240
 66.200 240
 66.280 246
 66.360 240
 66.440 222
 66.520 219
 66.600 225
 66.680 246
 66.760 246
 66.840 243
 66.920 243
 67.000 252
 67.080 240
 67.160 231
 67.240 213
 67.320 228
 67.400 225
 67.480 231
 67.560 265
 67.640 222
 67.720 231
 67.800 231
 67.880 234
 67.960 240
 68.040 240
 68.120 249
 68.200 252
 68.280 246
 68.360 243
 68.440 234
 68.520 228
 68.600 216
 68.680 210
 68.760 249
 68.840 228
 68.920 219
 69.000 243
 69.080 262
 69.160 240
 69.240 243
 69.320 231
 69.400 201
 69.480 268
 69.560 243
 69.640 252
 69.720 213
 69.800 225
 69.880 240
 69.960 222
 70.040 222
 70.120 243
 70.200 225
 70.280 246
 70.360 246
 70.440 240
 70.520 225
 70.600 237
 70.680 249
 70.760 237
 70.840 265
 70.920 249
 71.000 216
 71.080 234
 71.160 252
 71.240 243
 71.320 237
 71.400 219
 71.480 285
 71.560 243
 71.640 278
 71.720 228
 71.800 231
 71.880 249
 71.960 265
 72.040 225
 72.120 213
 72.200 237
 72.280 256
 72.360 237
 72.440 228
 72.520 240
 72.600 237
 72.680 231
 72.760 249
 72.840 219
 72.920 240
 73.000 246
 73.080 231
 73.160 228
 73.240 231
 73.320 237
 73.400 243
 73.480 249
 73.560 231
 73.640 246
 73.720 231
 73.800 216
 73.880 259
 73.960 246
 74.040 275
 74.120 252
 74.200 246
 74.280 228
 74.360 259
 74.440 240
 74.520 237
 74.600 243
 74.680 213
 74.760 234
 74.840 225
 74.920 243
 75.000 259
 75.080 219
 75.160 187
 75.240 219
 75.320 231
 75.400 228
 75.480 228
 75.560 234
 75.640 246
 75.720 246
 75.800 256
 75.880 198
 75.960 225
 76.040 231
 76.120 207
 76.200 249
 76.280 237
 76.360 234
 76.440 249
 76.520 228
 76.600 231
 76.680 222
 76.760 262
 76.840 228
 76.920 256
 77.000 216
 77.080 243
 77.160 225
 77.240 225
 77.320 237
 77.400 201
 77.480 237
 77.560 237
 77.640 198
 77.720 246
 77.800 228
 77.880 246
 77.960 201
 78.040 219
 78.120 228
 78.200 268
 78.280 225
 78.360 231
 78.440 198
 78.520 231
 78.600 198
 78.680 228
 78.760 219
 78.840 252
 78.920 252
 79.000 219
 79.080 219
 79.160 240
 79.240 225
 79.320 213
 79.400 240
 79.480 231
 79.560 231
 79.640 231
 79.720 231
 79.800 219
 79.880 231
 79.960 237
 80.040 210
 80.120 222
 80.200 228
 80.280 246
 80.360 225
 80.440 228
 80.520 252
 80.600 228
 80.680 210
 80.760 213
 80.840 213
 80.920 216
 81.000 222
 81.080 213
 81.160 204
 81.240 243
 81.320 222
 81.400 193
 81.480 213
 81.560 216
 81.640 225
 81.720 210
 81.800 213
 81.880 219
 81.960 216
 82.040 193
 82.120 213
 82.200 210
 82.280 228
 82.360 216
 82.440 231
 82.520 201
 82.600 216
 82.680 201
 82.760 213
 82.840 187
 82.920 240
 83.000 225
 83.080 190
 83.160 225
 83.240 225
 83.320 204
 83.400 210
 83.480 207
 83.560 234
 83.640 201
 83.720 198
 83.800 207
 83.880 216
 83.960 198
 84.040 193
 84.120 190
 84.200 187
 84.280 201
 84.360 225
 84.440 187
 84.520 213
 84.600 190
 84.680 228
 84.760 222
 84.840 204
 84.920 204
 85.000 201
 85.080 196
 85.160 207
 85.240 240
 85.320 210
 85.400 198
 85.480 196
 85.560 196
 85.640 198
 85.720 219
 85.800 196
 85.880 210
 85.960 176
 86.040 179
 86.120 207
 86.200 216
 86.280 234
 86.360 196
 86.440 196
 86.520 182
 86.600 210
 86.680 193
 86.760 179
 86.840 184
 86.920 198
 87.000 169
 87.080 174
 87.160 182
 87.240 187
 87.320 158
 87.400 193
 87.480 187
 87.560 163
 87.640 201
 87.720 176
 87.800 182
 87.880 176
 87.960 222
 88.040 207
 88.120 158
 88.200 176
 88.280 187
 88.360 174
 88.440 210
 88.520 176
 88.600 163
 88.680 182
 88.760 176
 88.840 187
 88.920 176
 89.000 166
 89.080 196
 89.160 193
 89.240 187
 89.320 193
 89.400 207
 89.480 196
 89.560 184
 89.640 187
 89.720 169
 89.800 193
 89.880 190
 89.960 187
 90.040 190
 90.120 169
 90.200 174
 90.280 156
 90.360 174
 90.440 169
 90.520 169
 90.600 158
 90.680 166
 90.760 184
 90.840 158
 90.920 187
 91.000 198
 91.080 179
 91.160 182
 91.240 161
 91.320 182
 91.400 169
 91.480 182
 91.560 184
 91.640 176
 91.720 161
 91.800 176
 91.880 169
 91.960 161
 92.040 169
 92.120 158
 92.200 198
 92.280 161
 92.360 179
 92.440 161
 92.520 184
 92.600 158
 92.680 158
 92.760 169
 92.840 151
 92.920 174
 93.000 163
 93.080 158
 93.160 169
 93.240 163
 93.320 171
 93.400 153
 93.480 174
 93.560 148
 93.640 163
 93.720 141
 93.800 176
 93.880 174
 93.960 179
 94.040 174
 94.120 187
 94.200 163
 94.280 174
 94.360 156
 94.440 156
 94.520 179
 94.600 166
 94.680 144
 94.760 148
 94.840 171
 94.920 176
 95.000 174
 95.080 187
 95.160 153
 95.240 182
 95.320 148
 95.400 161
 95.480 174
 95.560 169
 95.640 163
 95.720 153
 95.800 153
 95.880 158
 95.960 153
 96.040 141
 96.120 163
 96.200 151
 96.280 166
 96.360 161
 96.440 144
 96.520 174
 96.600 169
 96.680 136
 96.760 144
 96.840 153
 96.920 153
 97.000 169
 97.080 158
 97.160 171
 97.240 158
 97.320 146
 97.400 148
 97.480 156
 97.560 158
 97.640 158
 97.720 136
 97.800 141
 97.880 144
 97.960 169
 98.040 156
 98.120 158
 98.200 141
 98.280 151
 98.360 123
 98.440 148
 98.520 141
 98.600 136
 98.680 158
 98.760 123
 98.840 156
 98.920 163
 99.000 144
 99.080 146
 99.160 156
 99.240 136
 99.320 139
 99.400 136
 99.480 144
 99.560 139
 99.640 141
 99.720 161
 99.800 156
 99.880 151
 99.960 141
100.000 158