File: data/XRD/SUCROSE.PRN
  5.000 169
  5.080 171
  5.160 190
  5.240 148
  5.320 158
  5.400 174
  5.480 158
  5.560 161
  5.640 136
  5.720 163
  5.800 156
  5.880 163
  5.960 169
  6.040 158
  6.120 153
  6.200 163
  6.280 174
  6.360 144
  6.440 146
  6.520 158
  6.600 132
  6.680 134
  6.760 163
  6.840 136
  6.920 136
  7.000 163
  7.080 163
  7.160 134
  7.240 132
  7.320 127
  7.400 136
  7.480 158
  7.560 187
  7.640 148
  7.720 161
  7.800 237
  7.880 275
  7.960 412
  8.040 930
  8.120 954
  8.200 2550
  8.280 7072
  8.360 17556
  8.440 1030
  8.520 213
  8.600 174
  8.680 132
  8.760 129
  8.840 132
  8.920 129
  9.000 125
  9.080 121
  9.160 118
  9.240 132
  9.320 116
  9.400 106
  9.480 112
  9.560 108
  9.640 134
  9.720 114
  9.800 121
  9.880 114
  9.960 114
 10.040 112
 10.120 127
 10.200 148
 10.280 136
 10.360 156
 10.440 127
 10.520 153
 10.600 141
 10.680 161
 10.760 127
 10.840 121
 10.920 153
 11.000 134
 11.080 174
 11.160 306
 11.240 655
 11.320 600
 11.400 900
 11.480 1648
 11.560 6740
 11.640 37947
 11.720 21432
 11.800 1004
 11.880 420
 11.960 299
 12.040 163
 12.120 179
 12.200 169
 12.280 176
 12.360 272
 12.440 457
 12.520 640
 12.600 2070
 12.680 1324
 12.760 2480
 12.840 930
 12.920 800
 13.000 1406
 13.080 3856
 13.160 9158
 13.240 1755
 13.320 222
 13.400 249
 13.480 182
 13.560 134
 13.640 118
 13.720 106
 13.800 121
 13.880 127
 13.960 129
 14.040 144
 14.120 134
 14.200 129
 14.280 121
 14.360 123
 14.440 110
 14.520 127
 14.600 110
 14.680 144
 14.760 118
 14.840 114
 14.920 129
 15.000 163
 15.080 184
 15.160 249
 15.240 345
 15.320 812
 15.400 1296
 15.480 4006
 15.560 3180
 15.640 289
 15.720 252
 15.800 184
 15.880 243
 15.960 166
 16.040 201
 16.120 231
 16.200 338
 16.280 906
 16.360 702
 16.440 412
 16.520 1324
 16.600 942
 16.680 3398
 16.760 13271
 16.840 817
 16.920 210
 17.000 176
 17.080 171
 17.160 141
 17.240 141
 17.320 161
 17.400 148
 17.480 166
 17.560 127
 17.640 148
 17.720 169
 17.800 156
 17.880 176
 17.960 246
 18.040 349
 18.120 841
 18.200 470
 18.280 237
 18.360 252
 18.440 324
 18.520 561
 18.600 1043
 18.680 2662
 18.760 3214
 18.840 5806
 18.920 5126
 19.000 484
 19.080 295
 19.160 353
 19.240 404
 19.320 1713
 19.400 2025
 19.480 1664
 19.560 9158
 19.640 20306
 19.720 2520
 19.800 408
 19.880 299
 19.960 256
 20.040 231
 20.120 295
 20.200 368
 20.280 620
 20.360 1069
 20.440 723
 20.520 497
 20.600 1176
 20.680 2777
 20.760 5097
 20.840 2430
 20.920 739
 21.000 256
 21.080 204
 21.160 243
 21.240 222
 21.320 187
 21.400 179
 21.480 196
 21.560 198
 21.640 196
 21.720 259
 21.800 404
 21.880 876
 21.960 3124
 22.040 2061
 22.120 864
 22.200 342
 22.280 453
 22.360 767
 22.440 4844
 22.520 23932
 22.600 6922
 22.680 470
 22.760 324
 22.840 268
 22.920 240
 23.000 262
 23.080 561
 23.160 501
 23.240 285
 23.320 428
 23.400 676
 23.480 894
 23.560 1049
 23.640 576
 23.720 249
 23.800 216
 23.880 216
 23.960 289
 24.040 353
 24.120 392
 24.200 388
 24.280 620
 24.360 1128
 24.440 823
 24.520 1361
 24.600 2672
 24.680 5012
 24.760 6006
 24.840 4251
 24.920 1149
 25.000 973
 25.080 1747
 25.160 2926
 25.240 2621
 25.320 1253
 25.400 492
 25.480 306
 25.560 278
 25.640 327
 25.720 289
 25.800 342
 25.880 372
 25.960 342
 26.040 299
 26.120 372
 26.200 361
 26.280 324
 26.360 449
 26.440 846
 26.520 580
 26.600 292
 26.680 231
 26.760 265
 26.840 292
 26.920 349
 27.000 428
 27.080 712
 27.160 739
 27.240 789
 27.320 734
 27.400 707
 27.480 585
 27.560 484
 27.640 449
 27.720 380
 27.800 198
 27.880 182
 27.960 187
 28.040 201
 28.120 190
 28.200 210
 28.280 210
 28.360 320
 28.440 475
 28.520 676
 28.600 595
 28.680 561
 28.760 327
 28.840 176
 28.920 198
 29.000 184
 29.080 190
 29.160 187
 29.240 193
 29.320 179
 29.400 193
 29.480 196
 29.560 171
 29.640 176
 29.720 190
 29.800 207
 29.880 187
 29.960 210
 30.040 207
 30.120 240
 30.200 246
 30.280 272
 30.360 285
 30.440 338
 30.520 670
 30.600 1075
 30.680 1004
 30.760 625
 30.840 585
 30.920 1369
 31.000 1521
 31.080 806
 31.160 428
 31.240 1183
 31.320 1874
 31.400 985
 31.480 349
 31.560 357
 31.640 345
 31.720 453
 31.800 806
 31.880 1421
 31.960 1713
 32.040 936
 32.120 380
 32.200 380
 32.280 349
 32.360 313
 32.440 309
 32.520 357
 32.600 590
 32.680 640
 32.760 457
 32.840 361
 32.920 364
 33.000 392
 33.080 331
 33.160 278
 33.240 497
 33.320 605
 33.400 650
 33.480 519
 33.560 396
 33.640 372
 33.720 302
 33.800 436
 33.880 1128
 33.960 729
 34.040 278
 34.120 216
 34.200 225
 34.280 207
 34.360 237
 34.440 285
 34.520 331
 34.600 361
 34.680 441
 34.760 420
 34.840 388
 34.920 345
 35.000 256
 35.080 252
 35.160 353
 35.240 441
 35.320 445
 35.400 428
 35.480 396
 35.560 542
 35.640 1303
 35.720 3624
 35.800 2275
 35.880 806
 35.960 475
 36.040 457
 36.120 552
 36.200 864
 36.280 561
 36.360 441
 36.440 420
 36.520 432
 36.600 428
 36.680 552
 36.760 625
 36.840 691
 36.920 561
 37.000 436
 37.080 376
 37.160 384
 37.240 542
 37.320 510
 37.400 462
 37.480 289
 37.560 268
 37.640 234
 37.720 313
 37.800 361
 37.880 396
 37.960 470
 38.040 571
 38.120 750
 38.200 1332
 38.280 2070
 38.360 1459
 38.440 800
 38.520 615
 38.600 392
 38.680 542
 38.760 538
 38.840 571
 38.920 756
 39.000 1135
 39.080 998
 39.160 655
 39.240 392
 39.320 376
 39.400 408
 39.480 349
 39.560 449
 39.640 761
 39.720 1024
 39.800 2052
 39.880 1361
 39.960 1056
 40.040 800
 40.120 702
 40.200 615
 40.280 645
 40.360 1135
 40.440 812
 40.520 571
 40.600 338
 40.680 285
 40.760 265
 40.840 259
 40.920 306
 41.000 353
 41.080 396
 41.160 368
 41.240 408
 41.320 345
 41.400 396
 41.480 392
 41.560 501
 41.640 524
 41.720 640
 41.800 231
 41.880 246
 41.960 219
 42.040 210
 42.120 240
 42.200 262
 42.280 252
 42.360 256
 42.440 262
 42.520 237
 42.600 240
 42.680 249
 42.760 237
 42.840 272
 42.920 285
 43.000 338
 43.080 295
 43.160 302
 43.240 412
 43.320 524
 43.400 3806
 43.480 4070
 43.560 3214
 43.640 778
 43.720 590
 43.800 686
 43.880 712
 43.960 1332
 44.040 876
 44.120 331
 44.200 285
 44.280 306
 44.360 285
 44.440 262
 44.520 302
 44.600 306
 44.680 278
 44.760 231
 44.840 265
 44.920 278
 45.000 231
 45.080 262
 45.160 259
 45.240 282
 45.320 331
 45.400 268
 45.480 292
 45.560 295
 45.640 331
 45.720 331
 45.800 349
 45.880 600
 45.960 488
 46.040 436
 46.120 334
 46.200 302
 46.280 292
 46.360 665
 46.440 449
 46.520 457
 46.600 342
 46.680 400
 46.760 368
 46.840 376
 46.920 428
 47.000 510
 47.080 462
 47.160 380
 47.240 524
 47.320 408
 47.400 484
 47.480 338
 47.560 396
 47.640 1011
 47.720 1451
 47.800 1204
 47.880 718
 47.960 424
 48.040 412
 48.120 376
 48.200 445
 48.280 309
 48.360 309
 48.440 475
 48.520 441
 48.600 501
 48.680 345
 48.760 295
 48.840 353
 48.920 1030
 49.000 470
 49.080 829
 49.160 327
 49.240 316
 49.320 324
 49.400 268
 49.480 252
 49.560 243
 49.640 219
 49.720 265
 49.800 327
 49.880 306
 49.960 327
 50.040 285
 50.120 338
 50.200 309
 50.280 388
 50.360 718
 50.440 561
 50.520 506
 50.600 795
 50.680 6625
 50.760 3422
 50.840 3003
 50.920 767
 51.000 299
 51.080 252
 51.160 237
 51.240 225
 51.320 231
 51.400 219
 51.480 231
 51.560 213
 51.640 268
 51.720 240
 51.800 265
 51.880 295
 51.960 278
 52.040 313
 52.120 313
 52.200 289
 52.280 216
 52.360 231
 52.440 225
 52.520 213
 52.600 240
 52.680 275
 52.760 265
 52.840 240
 52.920 265
 53.000 210
 53.080 231
 53.160 216
 53.240 278
 53.320 262
 53.400 275
 53.480 316
 53.560 249
 53.640 275
 53.720 320
 53.800 462
 53.880 404
 53.960 457
 54.040 432
 54.120 408
 54.200 289
 54.280 265
 54.360 246
 54.440 228
 54.520 240
 54.600 256
 54.680 278
 54.760 327
 54.840 272
 54.920 278
 55.000 259
 55.080 432
 55.160 457
 55.240 416
 55.320 342
 55.400 295
 55.480 262
 55.560 234
 55.640 222
 55.720 249
 55.800 275
 55.880 349
 55.960 320
 56.040 361
 56.120 353
 56.200 357
 56.280 289
 56.360 302
 56.440 225
 56.520 349
 56.600 453
 56.680 320
 56.760 309
 56.840 174
 56.920 176
 57.000 193
 57.080 184
 57.160 228
 57.240 268
 57.320 237
 57.400 265
 57.480 259
 57.560 353
 57.640 285
 57.720 364
 57.800 272
 57.880 272
 57.960 228
 58.040 225
 58.120 219
 58.200 213
 58.280 231
 58.360 187
 58.440 249
 58.520 213
 58.600 204
 58.680 225
 58.760 216
 58.840 190
 58.920 309
 59.000 313
 59.080 282
 59.160 299
 59.240 228
 59.320 184
 59.400 193
 59.480 216
 59.560 213
 59.640 222
 59.720 182
 59.800 213
 59.880 225
 59.960 262
 60.040 595
 60.120 1197
 60.200 615
 60.280 691
 60.360 334
 60.440 222
 60.520 222
 60.600 225
 60.680 201
 60.760 225
 60.840 179
 60.920 182
 61.000 193
 61.080 187
 61.160 176
 61.240 190
 61.320 204
 61.400 228
 61.480 282
 61.560 453
 61.640 243
 61.720 306
 61.800 222
 61.880 207
 61.960 207
 62.040 193
 62.120 184
 62.200 187
 62.280 196
 62.360 240
 62.440 207
 62.520 176
 62.600 174
 62.680 187
 62.760 201
 62.840 187
 62.920 216
 63.000 184
 63.080 196
 63.160 171
 63.240 210
 63.320 204
 63.400 213
 63.480 216
 63.560 324
 63.640 400
 63.720 285
 63.800 313
 63.880 295
 63.960 234
 64.040 249
 64.120 262
 64.200 231
 64.280 228
 64.360 256
 64.440 466
 64.520 320
 64.600 309
 64.680 327
 64.760 216
 64.840 331
 64.920 457
 65.000 357
 65.080 376
 65.160 424
 65.240 479
 65.320 327
 65.400 372
 65.480 240
 65.560 207
 65.640 207
 65.720 204
 65.800 219
 65.880 275
 65.960 420
 66.040 201
 66.120 316
 66.200 278
 66.280 201
 66.360 216
 66.440 349
 66.520 538
 66.600 262
 66.680 392
 66.760 334
 66.840 240
 66.920 207
 67.000 204
 67.080 201
 67.160 193
 67.240 193
 67.320 198
 67.400 179
 67.480 196
 67.560 161
 67.640 179
 67.720 179
 67.800 190
 67.880 163
 67.960 198
 68.040 166
 68.120 190
 68.200 166
 68.280 184
 68.360 171
 68.440 163
 68.520 176
 68.600 174
 68.680 196
 68.760 187
 68.840 228
 68.920 510
 69.000 246
 69.080 349
 69.160 1004
 69.240 1049
 69.320 538
 69.400 750
 69.480 420
 69.560 222
 69.640 207
 69.720 219
 69.800 190
 69.880 225
 69.960 240
 70.040 396
 70.120 306
 70.200 309
 70.280 275
 70.360 184
 70.440 184
 70.520 219
 70.600 204
 70.680 204
 70.760 193
 70.840 176
 70.920 169
 71.000 193
 71.080 342
 71.160 324
 71.240 302
 71.320 320
 71.400 184
 71.480 268
 71.560 196
 71.640 184
 71.720 204
 71.800 174
 71.880 176
 71.960 174
 72.040 216
 72.120 246
 72.200 190
 72.280 222
 72.360 198
 72.440 176
 72.520 201
 72.600 204
 72.680 182
 72.760 327
 72.840 246
 72.920 237
 73.000 231
 73.080 201
 73.160 228
 73.240 196
 73.320 234
 73.400 196
 73.480 196
 73.560 179
 73.640 163
 73.720 193
 73.800 179
 73.880 169
 73.960 216
 74.040 222
 74.120 342
 74.200 416
 74.280 259
 74.360 353
 74.440 246
 74.520 228
 74.600 207
 74.680 171
 74.760 198
 74.840 187
 74.920 219
 75.000 193
 75.080 204
 75.160 225
 75.240 222
 75.320 207
 75.400 240
 75.480 193
 75.560 187
 75.640 190
 75.720 187
 75.800 243
 75.880 228
 75.960 179
 76.040 225
 76.120 201
 76.200 210
 76.280 198
 76.360 213
 76.440 412
 76.520 436
 76.600 237
 76.680 331
 76.760 272
 76.840 201
 76.920 187
 77.000 190
 77.080 256
 77.160 174
 77.240 196
 77.320 216
 77.400 228
 77.480 210
 77.560 213
 77.640 207
 77.720 201
 77.800 187
 77.880 187
 77.960 219
 78.040 228
 78.120 210
 78.200 187
 78.280 174
 78.360 210
 78.440 201
 78.520 222
 78.600 316
 78.680 256
 78.760 676
 78.840 475
 78.920 234
 79.000 400
 79.080 331
 79.160 445
 79.240 196
 79.320 246
 79.400 309
 79.480 262
 79.560 228
 79.640 184
 79.720 196
 79.800 163
 79.880 176
 79.960 225
 80.040 196
 80.120 213
 80.200 166
 80.280 210
 80.360 207
 80.440 216
 80.520 196
 80.600 309
 80.680 207
 80.760 219
 80.840 228
 80.920 174
 81.000 201
 81.080 169
 81.160 193
 81.240 198
 81.320 161
 81.400 190
 81.480 204
 81.560 184
 81.640 174
 81.720 190
 81.800 196
 81.880 179
 81.960 176
 82.040 174
 82.120 169
 82.200 179
 82.280 198
 82.360 187
 82.440 184
 82.520 169
 82.600 190
 82.680 196
 82.760 219
 82.840 187
 82.920 174
 83.000 174
 83.080 193
 83.160 265
 83.240 207
 83.320 204
 83.400 216
 83.480 171
 83.560 204
 83.640 201
 83.720 161
 83.800 148
 83.880 166
 83.960 139
 84.040 136
 84.120 153
 84.200 141
 84.280 163
 84.360 158
 84.440 148
 84.520 161
 84.600 166
 84.680 158
 84.760 179
 84.840 171
 84.920 182
 85.000 144
 85.080 153
 85.160 169
 85.240 146
 85.320 116
 85.400 161
 85.480 153
 85.560 151
 85.640 182
 85.720 166
 85.800 148
 85.880 176
 85.960 171
 86.040 190
 86.120 176
 86.200 368
 86.280 275
 86.360 198
 86.440 237
 86.520 262
 86.600 174
 86.680 196
 86.760 204
 86.840 207
 86.920 207
 87.000 198
 87.080 193
 87.160 237
 87.240 615
 87.320 320
 87.400 228
 87.480 338
 87.560 342
 87.640 193
 87.720 210
 87.800 222
 87.880 163
 87.960 198
 88.040 201
 88.120 158
 88.200 141
 88.280 174
 88.360 196
 88.440 153
 88.520 163
 88.600 171
 88.680 171
 88.760 190
 88.840 207
 88.920 148
 89.000 190
 89.080 169
 89.160 174
 89.240 166
 89.320 184
 89.400 171
 89.480 158
 89.560 161
 89.640 169
 89.720 201
 89.800 243
 89.880 171
 89.960 163
 90.040 259
 90.120 234
 90.200 198
 90.280 198
 90.360 182
 90.440 166
 90.520 193
 90.600 249
 90.680 243
 90.760 222
 90.840 190
 90.920 216
 91.000 204
 91.080 156
 91.160 161
 91.240 153
 91.320 198
 91.400 187
 91.480 240
 91.560 246
 91.640 222
 91.720 198
 91.800 193
 91.880 187
 91.960 190
 92.040 153
 92.120 174
 92.200 139
 92.280 166
 92.360 169
 92.440 153
 92.520 144
 92.600 182
 92.680 158
 92.760 174
 92.840 207
 92.920 187
 93.000 174
 93.080 207
 93.160 246
 93.240 302
 93.320 187
 93.400 184
 93.480 184
 93.560 193
 93.640 146
 93.720 163
 93.800 182
 93.880 153
 93.960 201
 94.040 166
 94.120 179
 94.200 156
 94.280 176
 94.360 184
 94.440 171
 94.520 166
 94.600 139
 94.680 125
 94.760 134
 94.840 156
 94.920 148
 95.000 132
 95.080 166
 95.160 163
 95.240 171
 95.320 163
 95.400 163
 95.480 153
 95.560 156
 95.640 136
 95.720 163
 95.800 158
 95.880 148
 95.960 158
 96.040 158
 96.120 129
 96.200 201
 96.280 153
 96.360 148
 96.440 153
 96.520 169
 96.600 144
 96.680 156
 96.760 166
 96.840 153
 96.920 153
 97.000 169
 97.080 141
 97.160 134
 97.240 146
 97.320 146
 97.400 134
 97.480 174
 97.560 148
 97.640 129
 97.720 148
 97.800 156
 97.880 144
 97.960 158
 98.040 158
 98.120 163
 98.200 127
 98.280 139
 98.360 151
 98.440 139
 98.520 129
 98.600 134
 98.680 136
 98.760 153
 98.840 125
 98.920 129
 99.000 144
 99.080 156
 99.160 121
 99.240 136
 99.320 148
 99.400 141
 99.480 144
 99.560 129
 99.640 148
 99.720 141
 99.800 110
 99.880 129
 99.960 116
100.000 139