File: data/XRD/VALINE.PRN
  5.000 252
  5.080 231
  5.160 210
  5.240 231
  5.320 219
  5.400 213
  5.480 201
  5.560 184
  5.640 225
  5.720 193
  5.800 196
  5.880 198
  5.960 231
  6.040 207
  6.120 240
  6.200 201
  6.280 225
  6.360 201
  6.440 207
  6.520 234
  6.600 231
  6.680 256
  6.760 285
  6.840 278
  6.920 361
  7.000 538
  7.080 665
  7.160 1089
  7.240 2088
  7.320 2590
  7.400 3881
  7.480 5760
  7.560 11513
  7.640 18933
  7.720 33672
  7.800 70331
  7.880 154527
  7.960 443422
  8.040 841072
  8.120 350227
  8.200 29241
  8.280 9331
  8.360 3124
  8.440 1004
  8.520 590
  8.600 408
  8.680 327
  8.760 289
  8.840 234
  8.920 163
  9.000 184
  9.080 182
  9.160 136
  9.240 161
  9.320 158
  9.400 136
  9.480 148
  9.560 163
  9.640 129
  9.720 116
  9.800 116
  9.880 136
  9.960 110
 10.040 118
 10.120 136
 10.200 123
 10.280 129
 10.360 121
 10.440 129
 10.520 129
 10.600 116
 10.680 129
 10.760 114
 10.840 129
 10.920 151
 11.000 134
 11.080 132
 11.160 127
 11.240 127
 11.320 144
 11.400 123
 11.480 112
 11.560 116
 11.640 123
 11.720 125
 11.800 136
 11.880 153
 11.960 144
 12.040 141
 12.120 136
 12.200 134
 12.280 136
 12.360 151
 12.440 134
 12.520 139
 12.600 134
 12.680 134
 12.760 136
 12.840 127
 12.920 141
 13.000 141
 13.080 158
 13.160 132
 13.240 158
 13.320 129
 13.400 139
 13.480 141
 13.560 129
 13.640 156
 13.720 139
 13.800 136
 13.880 129
 13.960 146
 14.040 125
 14.120 129
 14.200 153
 14.280 174
 14.360 184
 14.440 225
 14.520 231
 14.600 190
 14.680 174
 14.760 182
 14.840 187
 14.920 204
 15.000 182
 15.080 196
 15.160 231
 15.240 237
 15.320 357
 15.400 388
 15.480 655
 15.560 1043
 15.640 1900
 15.720 3552
 15.800 7039
 15.880 17503
 15.960 35118
 16.040 71182
 16.120 54149
 16.200 5867
 16.280 1497
 16.360 961
 16.440 453
 16.520 345
 16.600 282
 16.680 228
 16.760 222
 16.840 210
 16.920 198
 17.000 179
 17.080 161
 17.160 193
 17.240 196
 17.320 210
 17.400 234
 17.480 338
 17.560 449
 17.640 1030
 17.720 2410
 17.800 2724
 17.880 5012
 17.960 4173
 18.040 1056
 18.120 475
 18.200 488
 18.280 734
 18.360 954
 18.440 640
 18.520 268
 18.600 193
 18.680 210
 18.760 225
 18.840 268
 18.920 384
 19.000 566
 19.080 817
 19.160 1156
 19.240 1260
 19.320 812
 19.400 309
 19.480 285
 19.560 299
 19.640 353
 19.720 275
 19.800 225
 19.880 176
 19.960 182
 20.040 184
 20.120 166
 20.200 153
 20.280 163
 20.360 163
 20.440 163
 20.520 166
 20.600 182
 20.680 174
 20.760 176
 20.840 184
 20.920 187
 21.000 222
 21.080 237
 21.160 327
 21.240 376
 21.320 492
 21.400 812
 21.480 1406
 21.560 1849
 21.640 2550
 21.720 2152
 21.800 1190
 21.880 1017
 21.960 906
 22.040 625
 22.120 272
 22.200 210
 22.280 187
 22.360 198
 22.440 176
 22.520 196
 22.600 182
 22.680 234
 22.760 210
 22.840 196
 22.920 198
 23.000 228
 23.080 228
 23.160 243
 23.240 249
 23.320 345
 23.400 529
 23.480 750
 23.560 1024
 23.640 1406
 23.720 2043
 23.800 2672
 23.880 2683
 23.960 3769
 24.040 6544
 24.120 12166
 24.200 13782
 24.280 4147
 24.360 812
 24.440 524
 24.520 372
 24.600 299
 24.680 285
 24.760 306
 24.840 246
 24.920 275
 25.000 275
 25.080 237
 25.160 246
 25.240 299
 25.320 249
 25.400 265
 25.480 320
 25.560 349
 25.640 420
 25.720 552
 25.800 750
 25.880 1082
 25.960 1764
 26.040 2025
 26.120 1197
 26.200 501
 26.280 324
 26.360 380
 26.440 412
 26.520 524
 26.600 691
 26.680 979
 26.760 1043
 26.840 1274
 26.920 1953
 27.000 2540
 27.080 1918
 27.160 858
 27.240 432
 27.320 299
 27.400 313
 27.480 313
 27.560 295
 27.640 306
 27.720 309
 27.800 309
 27.880 320
 27.960 324
 28.040 320
 28.120 309
 28.200 289
 28.280 345
 28.360 302
 28.440 368
 28.520 380
 28.600 376
 28.680 432
 28.760 453
 28.840 432
 28.920 408
 29.000 441
 29.080 492
 29.160 670
 29.240 745
 29.320 665
 29.400 702
 29.480 580
 29.560 475
 29.640 524
 29.720 556
 29.800 681
 29.880 823
 29.960 912
 30.040 1082
 30.120 1310
 30.200 1576
 30.280 1176
 30.360 778
 30.440 538
 30.520 497
 30.600 552
 30.680 552
 30.760 571
 30.840 580
 30.920 580
 31.000 681
 31.080 665
 31.160 750
 31.240 823
 31.320 852
 31.400 1011
 31.480 1267
 31.560 1459
 31.640 1962
 31.720 3169
 31.800 5055
 31.880 7056
 31.960 10140
 32.040 15775
 32.120 24932
 32.200 41820
 32.280 75955
 32.360 155630
 32.440 120756
 32.520 38848
 32.600 7656
 32.680 3856
 32.760 2530
 32.840 1971
 32.920 1814
 33.000 2134
 33.080 2704
 33.160 3249
 33.240 4070
 33.320 6209
 33.400 5535
 33.480 3733
 33.560 3317
 33.640 3422
 33.720 2371
 33.800 1346
 33.880 882
 33.960 835
 34.040 767
 34.120 712
 34.200 686
 34.280 620
 34.360 660
 34.440 665
 34.520 670
 34.600 723
 34.680 761
 34.760 784
 34.840 912
 34.920 1089
 35.000 1135
 35.080 1069
 35.160 900
 35.240 778
 35.320 841
 35.400 812
 35.480 876
 35.560 967
 35.640 930
 35.720 817
 35.800 870
 35.880 948
 35.960 1024
 36.040 942
 36.120 817
 36.200 1102
 36.280 1056
 36.360 784
 36.440 640
 36.520 650
 36.600 702
 36.680 718
 36.760 812
 36.840 1089
 36.920 1253
 37.000 1369
 37.080 1246
 37.160 1303
 37.240 1204
 37.320 1030
 37.400 767
 37.480 630
 37.560 635
 37.640 542
 37.720 524
 37.800 501
 37.880 538
 37.960 620
 38.040 707
 38.120 778
 38.200 784
 38.280 712
 38.360 655
 38.440 585
 38.520 660
 38.600 696
 38.680 529
 38.760 445
 38.840 412
 38.920 484
 39.000 484
 39.080 466
 39.160 479
 39.240 533
 39.320 552
 39.400 625
 39.480 729
 39.560 681
 39.640 645
 39.720 571
 39.800 640
 39.880 615
 39.960 723
 40.040 823
 40.120 1062
 40.200 1376
 40.280 2116
 40.360 2631
 40.440 3445
 40.520 4610
 40.600 7242
 40.680 11599
 40.760 23225
 40.840 17768
 40.920 9254
 41.000 2916
 41.080 1428
 41.160 864
 41.240 610
 41.320 576
 41.400 533
 41.480 542
 41.560 457
 41.640 542
 41.720 571
 41.800 605
 41.880 519
 41.960 501
 42.040 515
 42.120 501
 42.200 484
 42.280 380
 42.360 338
 42.440 342
 42.520 302
 42.600 275
 42.680 313
 42.760 256
 42.840 316
 42.920 320
 43.000 338
 43.080 299
 43.160 309
 43.240 309
 43.320 316
 43.400 285
 43.480 262
 43.560 278
 43.640 265
 43.720 262
 43.800 265
 43.880 313
 43.960 380
 44.040 349
 44.120 342
 44.200 324
 44.280 299
 44.360 320
 44.440 331
 44.520 372
 44.600 320
 44.680 324
 44.760 299
 44.840 249
 44.920 268
 45.000 252
 45.080 268
 45.160 268
 45.240 289
 45.320 278
 45.400 272
 45.480 285
 45.560 316
 45.640 349
 45.720 364
 45.800 400
 45.880 408
 45.960 392
 46.040 345
 46.120 353
 46.200 334
 46.280 361
 46.360 388
 46.440 361
 46.520 416
 46.600 412
 46.680 320
 46.760 275
 46.840 249
 46.920 278
 47.000 292
 47.080 252
 47.160 246
 47.240 240
 47.320 225
 47.400 275
 47.480 219
 47.560 207
 47.640 252
 47.720 228
 47.800 252
 47.880 268
 47.960 265
 48.040 246
 48.120 275
 48.200 376
 48.280 462
 48.360 466
 48.440 488
 48.520 428
 48.600 515
 48.680 524
 48.760 396
 48.840 372
 48.920 445
 49.000 515
 49.080 524
 49.160 620
 49.240 696
 49.320 942
 49.400 1738
 49.480 1197
 49.560 918
 49.640 462
 49.720 327
 49.800 345
 49.880 306
 49.960 306
 50.040 262
 50.120 282
 50.200 275
 50.280 285
 50.360 302
 50.440 324
 50.520 309
 50.600 272
 50.680 256
 50.760 289
 50.840 292
 50.920 268
 51.000 265
 51.080 240
 51.160 265
 51.240 275
 51.320 275
 51.400 268
 51.480 275
 51.560 272
 51.640 272
 51.720 295
 51.800 289
 51.880 299
 51.960 306
 52.040 313
 52.120 285
 52.200 309
 52.280 306
 52.360 357
 52.440 404
 52.520 479
 52.600 556
 52.680 691
 52.760 924
 52.840 1267
 52.920 1169
 53.000 1043
 53.080 660
 53.160 453
 53.240 299
 53.320 289
 53.400 278
 53.480 282
 53.560 285
 53.640 285
 53.720 272
 53.800 313
 53.880 349
 53.960 331
 54.040 306
 54.120 289
 54.200 285
 54.280 272
 54.360 272
 54.440 272
 54.520 313
 54.600 313
 54.680 327
 54.760 416
 54.840 428
 54.920 428
 55.000 416
 55.080 357
 55.160 316
 55.240 285
 55.320 278
 55.400 292
 55.480 262
 55.560 345
 55.640 432
 55.720 384
 55.800 331
 55.880 295
 55.960 331
 56.040 240
 56.120 275
 56.200 306
 56.280 316
 56.360 342
 56.440 361
 56.520 364
 56.600 432
 56.680 524
 56.760 524
 56.840 571
 56.920 615
 57.000 712
 57.080 841
 57.160 817
 57.240 795
 57.320 615
 57.400 524
 57.480 376
 57.560 372
 57.640 331
 57.720 299
 57.800 345
 57.880 424
 57.960 453
 58.040 497
 58.120 515
 58.200 655
 58.280 936
 58.360 1253
 58.440 829
 58.520 772
 58.600 492
 58.680 331
 58.760 338
 58.840 342
 58.920 309
 59.000 292
 59.080 324
 59.160 313
 59.240 338
 59.320 320
 59.400 324
 59.480 309
 59.560 313
 59.640 299
 59.720 285
 59.800 285
 59.880 234
 59.960 252
 60.040 262
 60.120 262
 60.200 285
 60.280 275
 60.360 265
 60.440 282
 60.520 320
 60.600 289
 60.680 313
 60.760 368
 60.840 420
 60.920 497
 61.000 615
 61.080 686
 61.160 691
 61.240 772
 61.320 979
 61.400 1062
 61.480 1253
 61.560 1274
 61.640 930
 61.720 681
 61.800 470
 61.880 396
 61.960 345
 62.040 457
 62.120 466
 62.200 470
 62.280 506
 62.360 441
 62.440 404
 62.520 324
 62.600 272
 62.680 249
 62.760 268
 62.840 265
 62.920 234
 63.000 228
 63.080 249
 63.160 259
 63.240 225
 63.320 240
 63.400 262
 63.480 259
 63.560 268
 63.640 256
 63.720 240
 63.800 240
 63.880 213
 63.960 228
 64.040 234
 64.120 272
 64.200 272
 64.280 278
 64.360 285
 64.440 275
 64.520 252
 64.600 285
 64.680 292
 64.760 316
 64.840 361
 64.920 376
 65.000 396
 65.080 364
 65.160 384
 65.240 357
 65.320 361
 65.400 416
 65.480 457
 65.560 506
 65.640 510
 65.720 561
 65.800 707
 65.880 789
 65.960 800
 66.040 739
 66.120 630
 66.200 457
 66.280 396
 66.360 368
 66.440 372
 66.520 306
 66.600 299
 66.680 282
 66.760 285
 66.840 302
 66.920 285
 67.000 306
 67.080 331
 67.160 316
 67.240 392
 67.320 368
 67.400 384
 67.480 457
 67.560 524
 67.640 670
 67.720 936
 67.800 595
 67.880 552
 67.960 445
 68.040 275
 68.120 225
 68.200 231
 68.280 246
 68.360 231
 68.440 228
 68.520 231
 68.600 222
 68.680 228
 68.760 246
 68.840 222
 68.920 196
 69.000 213
 69.080 225
 69.160 219
 69.240 219
 69.320 246
 69.400 222
 69.480 228
 69.560 265
 69.640 240
 69.720 262
 69.800 249
 69.880 252
 69.960 285
 70.040 246
 70.120 243
 70.200 285
 70.280 252
 70.360 302
 70.440 357
 70.520 324
 70.600 396
 70.680 404
 70.760 361
 70.840 331
 70.920 320
 71.000 240
 71.080 231
 71.160 246
 71.240 225
 71.320 234
 71.400 262
 71.480 228
 71.560 243
 71.640 222
 71.720 201
 71.800 176
 71.880 219
 71.960 204
 72.040 243
 72.120 187
 72.200 187
 72.280 210
 72.360 210
 72.440 225
 72.520 184
 72.600 225
 72.680 234
 72.760 234
 72.840 210
 72.920 246
 73.000 222
 73.080 219
 73.160 240
 73.240 246
 73.320 262
 73.400 268
 73.480 231
 73.560 249
 73.640 225
 73.720 234
 73.800 216
 73.880 207
 73.960 231
 74.040 222
 74.120 228
 74.200 201
 74.280 243
 74.360 225
 74.440 240
 74.520 256
 74.600 292
 74.680 240
 74.760 295
 74.840 320
 74.920 320
 75.000 349
 75.080 400
 75.160 436
 75.240 457
 75.320 466
 75.400 384
 75.480 353
 75.560 292
 75.640 252
 75.720 259
 75.800 228
 75.880 259
 75.960 265
 76.040 278
 76.120 282
 76.200 309
 76.280 295
 76.360 268
 76.440 259
 76.520 237
 76.600 222
 76.680 187
 76.760 190
 76.840 176
 76.920 198
 77.000 249
 77.080 237
 77.160 198
 77.240 216
 77.320 204
 77.400 213
 77.480 216
 77.560 262
 77.640 262
 77.720 259
 77.800 256
 77.880 259
 77.960 262
 78.040 262
 78.120 272
 78.200 259
 78.280 231
 78.360 228
 78.440 201
 78.520 190
 78.600 198
 78.680 213
 78.760 204
 78.840 196
 78.920 207
 79.000 225
 79.080 196
 79.160 196
 79.240 196
 79.320 198
 79.400 171
 79.480 216
 79.560 169
 79.640 198
 79.720 204
 79.800 231
 79.880 240
 79.960 225
 80.040 265
 80.120 256
 80.200 306
 80.280 299
 80.360 285
 80.440 299
 80.520 262
 80.600 216
 80.680 228
 80.760 196
 80.840 187
 80.920 184
 81.000 196
 81.080 174
 81.160 210
 81.240 187
 81.320 182
 81.400 176
 81.480 156
 81.560 163
 81.640 169
 81.720 148
 81.800 174
 81.880 171
 81.960 187
 82.040 151
 82.120 184
 82.200 193
 82.280 171
 82.360 179
 82.440 184
 82.520 213
 82.600 184
 82.680 179
 82.760 210
 82.840 204
 82.920 184
 83.000 207
 83.080 187
 83.160 156
 83.240 182
 83.320 174
 83.400 187
 83.480 163
 83.560 182
 83.640 184
 83.720 158
 83.800 169
 83.880 182
 83.960 190
 84.040 174
 84.120 144
 84.200 169
 84.280 182
 84.360 161
 84.440 187
 84.520 187
 84.600 179
 84.680 184
 84.760 190
 84.840 219
 84.920 237
 85.000 252
 85.080 249
 85.160 249
 85.240 234
 85.320 285
 85.400 338
 85.480 299
 85.560 285
 85.640 268
 85.720 234
 85.800 256
 85.880 213
 85.960 187
 86.040 198
 86.120 201
 86.200 213
 86.280 201
 86.360 169
 86.440 166
 86.520 187
 86.600 187
 86.680 182
 86.760 176
 86.840 176
 86.920 196
 87.000 187
 87.080 184
 87.160 213
 87.240 182
 87.320 174
 87.400 184
 87.480 156
 87.560 187
 87.640 187
 87.720 196
 87.800 187
 87.880 166
 87.960 187
 88.040 161
 88.120 196
 88.200 219
 88.280 198
 88.360 219
 88.440 204
 88.520 171
 88.600 201
 88.680 246
 88.760 222
 88.840 196
 88.920 207
 89.000 210
 89.080 187
 89.160 193
 89.240 182
 89.320 169
 89.400 174
 89.480 184
 89.560 163
 89.640 196
 89.720 190
 89.800 204
 89.880 193
 89.960 204
 90.040 222
 90.120 184
 90.200 207
 90.280 213
 90.360 201
 90.440 219
 90.520 213
 90.600 234
 90.680 225
 90.760 289
 90.840 306
 90.920 278
 91.000 240
 91.080 240
 91.160 216
 91.240 243
 91.320 210
 91.400 196
 91.480 187
 91.560 187
 91.640 213
 91.720 225
 91.800 225
 91.880 243
 91.960 196
 92.040 190
 92.120 187
 92.200 187
 92.280 176
 92.360 176
 92.440 179
 92.520 187
 92.600 182
 92.680 182
 92.760 176
 92.840 176
 92.920 193
 93.000 187
 93.080 190
 93.160 158
 93.240 163
 93.320 176
 93.400 176
 93.480 176
 93.560 210
 93.640 182
 93.720 171
 93.800 176
 93.880 161
 93.960 182
 94.040 193
 94.120 171
 94.200 176
 94.280 184
 94.360 153
 94.440 174
 94.520 158
 94.600 182
 94.680 169
 94.760 184
 94.840 161
 94.920 179
 95.000 169
 95.080 151
 95.160 169
 95.240 182
 95.320 151
 95.400 163
 95.480 163
 95.560 144
 95.640 174
 95.720 151
 95.800 184
 95.880 166
 95.960 148
 96.040 156
 96.120 176
 96.200 171
 96.280 196
 96.360 179
 96.440 179
 96.520 184
 96.600 213
 96.680 179
 96.760 169
 96.840 169
 96.920 187
 97.000 187
 97.080 196
 97.160 156
 97.240 213
 97.320 198
 97.400 198
 97.480 207
 97.560 210
 97.640 201
 97.720 204
 97.800 198
 97.880 210
 97.960 187
 98.040 182
 98.120 193
 98.200 198
 98.280 184
 98.360 174
 98.440 184
 98.520 182
 98.600 174
 98.680 182
 98.760 213
 98.840 207
 98.920 182
 99.000 193
 99.080 169
 99.160 171
 99.240 161
 99.320 148
 99.400 163
 99.480 161
 99.560 176
 99.640 174
 99.720 153
 99.800 187
 99.880 174
 99.960 201
100.000 176