File: data/XRD/ZINCITE.PRN
   5.000       222
   5.100       158
   5.200       196
   5.300       148
   5.400       156
   5.500       166
   5.600       148
   5.700       144
   5.800       141
   5.900       139
   6.000       141
   6.100       141
   6.200       136
   6.300       123
   6.400       141
   6.500       123
   6.600       125
   6.700       129
   6.800       114
   6.900       136
   7.000       108
   7.100       129
   7.200       114
   7.300        90
   7.400       125
   7.500       112
   7.600       100
   7.700       110
   7.800       118
   7.900       104
   8.000       104
   8.100       123
   8.200        98
   8.300        92
   8.400        86
   8.500        94
   8.600        94
   8.700        79
   8.800        94
   8.900        98
   9.000        98
   9.100       100
   9.200        96
   9.300        82
   9.400       100
   9.500        92
   9.600        96
   9.700        92
   9.800        96
   9.900        79
  10.000        92
  10.100        73
  10.200        88
  10.300        86
  10.400        77
  10.500        82
  10.600        84
  10.700        72
  10.800        81
  10.900        88
  11.000        67
  11.100        68
  11.200        72
  11.300        73
  11.400        68
  11.500        77
  11.600        62
  11.700        72
  11.800        79
  11.900        70
  12.000        65
  12.100        60
  12.200        62
  12.300        79
  12.400        60
  12.500        77
  12.600        82
  12.700        72
  12.800        53
  12.900        90
  13.000        77
  13.100        84
  13.200        75
  13.300        67
  13.400        62
  13.500        67
  13.600        68
  13.700        62
  13.800        47
  13.900        59
  14.000        59
  14.100        62
  14.200        57
  14.300        60
  14.400        47
  14.500        57
  14.600        65
  14.700        59
  14.800        53
  14.900        56
  15.000        54
  15.100        62
  15.200        65
  15.300        53
  15.400        54
  15.500        60
  15.600        47
  15.700        53
  15.800        70
  15.900        46
  16.000        53
  16.100        59
  16.200        50
  16.300        50
  16.400        49
  16.500        67
  16.600        43
  16.700        53
  16.800        47
  16.900        54
  17.000        59
  17.100        59
  17.200        53
  17.300        56
  17.400        53
  17.500        44
  17.600        42
  17.700        59
  17.800        36
  17.900        46
  18.000        50
  18.100        44
  18.200        44
  18.300        65
  18.400        47
  18.500        42
  18.600        43
  18.700        43
  18.800        59
  18.900        59
  19.000        54
  19.100        50
  19.200        62
  19.300        47
  19.400        54
  19.500        46
  19.600        50
  19.700        50
  19.800        54
  19.900        53
  20.000        53
  20.100        49
  20.200        47
  20.300        38
  20.400        47
  20.500        46
  20.600        57
  20.700        37
  20.800        56
  20.900        39
  21.000        46
  21.100        43
  21.200        38
  21.300        43
  21.400        50
  21.500        57
  21.600        47
  21.700        46
  21.800        44
  21.900        47
  22.000        46
  22.100        51
  22.200        53
  22.300        49
  22.400        42
  22.500        51
  22.600        42
  22.700        43
  22.800        40
  22.900        56
  23.000        47
  23.100        42
  23.200        46
  23.300        46
  23.400        43
  23.500        44
  23.600        33
  23.700        51
  23.800        51
  23.900        38
  24.000        65
  24.100        47
  24.200        34
  24.300        50
  24.400        38
  24.500        49
  24.600        50
  24.700        49
  24.800        40
  24.900        39
  25.000        42
  25.100        49
  25.200        42
  25.300        53
  25.400        60
  25.500        57
  25.600        53
  25.700        50
  25.800        43
  25.900        42
  26.000        38
  26.100        51
  26.200        42
  26.300        43
  26.400        38
  26.500        38
  26.600        40
  26.700        39
  26.800        50
  26.900        49
  27.000        47
  27.100        54
  27.200        57
  27.300        39
  27.400        40
  27.500        40
  27.600        56
  27.700        50
  27.800        51
  27.900        54
  28.000        47
  28.100        43
  28.200        49
  28.300        42
  28.400        47
  28.500        50
  28.600        77
  28.700        72
  28.800        59
  28.900        51
  29.000        44
  29.100        43
  29.200        54
  29.300        43
  29.400        62
  29.500        51
  29.600        59
  29.700        59
  29.800        50
  29.900        56
  30.000        72
  30.100        56
  30.200        53
  30.300        60
  30.400        84
  30.500        72
  30.600        67
  30.700       102
  30.800        96
  30.900       104
  31.000       136
  31.100       114
  31.200       136
  31.300       207
  31.400       313
  31.500       492
  31.600      1436
  31.700      6512
  31.800     15129
  31.900      5595
  32.000       894
  32.100       388
  32.200       237
  32.300       158
  32.400       125
  32.500       121
  32.600       132
  32.700       132
  32.800        79
  32.900        88
  33.000        98
  33.100        90
  33.200        94
  33.300       106
  33.400        96
  33.500        92
  33.600       104
  33.700       100
  33.800       121
  33.900       136
  34.000       193
  34.100       265
  34.200       462
  34.300      1738
  34.400      8427
  34.500      7761
  34.600      1616
  34.700       404
  34.800       228
  34.900       153
  35.000       151
  35.100       125
  35.200       129
  35.300       146
  35.400       169
  35.500       163
  35.600       225
  35.700       234
  35.800       324
  35.900       462
  36.000       973
  36.100      2704
  36.200     12746
  36.300     23134
  36.400      9101
  36.500      1436
  36.600       620
  36.700       338
  36.800       216
  36.900       176
  37.000       148
  37.100       127
  37.200       127
  37.300        94
  37.400        88
  37.500        70
  37.600        77
  37.700        81
  37.800        72
  37.900        70
  38.000        67
  38.100        65
  38.200        56
  38.300        65
  38.400        56
  38.500        70
  38.600        62
  38.700        50
  38.800        49
  38.900        49
  39.000        56
  39.100        62
  39.200        64
  39.300        72
  39.400        56
  39.500        56
  39.600        51
  39.700        47
  39.800        51
  39.900        56
  40.000        46
  40.100        49
  40.200        46
  40.300        64
  40.400        46
  40.500        57
  40.600        49
  40.700        46
  40.800        47
  40.900        47
  41.000        56
  41.100        47
  41.200        49
  41.300        50
  41.400        43
  41.500        49
  41.600        50
  41.700        59
  41.800        34
  41.900        53
  42.000        49
  42.100        54
  42.200        47
  42.300        50
  42.400        33
  42.500        50
  42.600        50
  42.700        53
  42.800        53
  42.900        57
  43.000        40
  43.100        47
  43.200        42
  43.300        56
  43.400        42
  43.500        46
  43.600        33
  43.700        59
  43.800        57
  43.900        60
  44.000        38
  44.100        46
  44.200        46
  44.300        49
  44.400        47
  44.500        47
  44.600        53
  44.700        42
  44.800        47
  44.900        70
  45.000        43
  45.100        53
  45.200        50
  45.300        46
  45.400        53
  45.500        46
  45.600        37
  45.700        42
  45.800        57
  45.900        65
  46.000        72
  46.100        47
  46.200        51
  46.300        53
  46.400        65
  46.500        70
  46.600        72
  46.700        59
  46.800        65
  46.900        75
  47.000        96
  47.100       139
  47.200       166
  47.300       282
  47.400       640
  47.500      3226
  47.600      4369
  47.700      2550
  47.800       470
  47.900       193
  48.000       121
  48.100        96
  48.200        84
  48.300        75
  48.400        62
  48.500        53
  48.600        53
  48.700        56
  48.800        60
  48.900        56
  49.000        65
  49.100        47
  49.200        59
  49.300        53
  49.400        56
  49.500        50
  49.600        49
  49.700        47
  49.800        53
  49.900        43
  50.000        46
  50.100        60
  50.200        60
  50.300        51
  50.400        39
  50.500        38
  50.600        39
  50.700        62
  50.800        53
  50.900        53
  51.000        38
  51.100        64
  51.200        47
  51.300        56
  51.400        59
  51.500        47
  51.600        33
  51.700        53
  51.800        43
  51.900        53
  52.000        47
  52.100        47
  52.200        43
  52.300        40
  52.400        49
  52.500        49
  52.600        60
  52.700        42
  52.800        64
  52.900        50
  53.000        57
  53.100        50
  53.200        53
  53.300        53
  53.400        49
  53.500        64
  53.600        57
  53.700        59
  53.800        46
  53.900        57
  54.000        44
  54.100        67
  54.200        62
  54.300        53
  54.400        59
  54.500        72
  54.600        59
  54.700        60
  54.800        77
  54.900        72
  55.000        65
  55.100        60
  55.200        65
  55.300        70
  55.400        73
  55.500        96
  55.600       100
  55.700        82
  55.800        96
  55.900       106
  56.000        96
  56.100       139
  56.200       187
  56.300       331
  56.400       533
  56.500      1849
  56.600      8046
  56.700      4032
  56.800      3294
  56.900       566
  57.000       246
  57.100       176
  57.200       118
  57.300       108
  57.400       100
  57.500        82
  57.600        86
  57.700        82
  57.800        72
  57.900        65
  58.000        77
  58.100        72
  58.200        67
  58.300        75
  58.400        72
  58.500        70
  58.600        56
  58.700        56
  58.800        77
  58.900        64
  59.000        75
  59.100        62
  59.200        62
  59.300        68
  59.400        59
  59.500        64
  59.600        59
  59.700        57
  59.800        56
  59.900        75
  60.000        70
  60.100        70
  60.200        70
  60.300        65
  60.400        67
  60.500        68
  60.600        67
  60.700        77
  60.800        67
  60.900        67
  61.000        68
  61.100        64
  61.200        72
  61.300        73
  61.400        65
  61.500        75
  61.600        92
  61.700        90
  61.800        84
  61.900        77
  62.000        86
  62.100        96
  62.200        96
  62.300       127
  62.400       163
  62.500       246
  62.600       338
  62.700       702
  62.800      3283
  62.900      6099
  63.000      2926
  63.100      2088
  63.200       412
  63.300       207
  63.400       129
  63.500       127
  63.600       108
  63.700       110
  63.800        67
  63.900        84
  64.000        82
  64.100        92
  64.200        70
  64.300        67
  64.400        75
  64.500        75
  64.600        72
  64.700        84
  64.800        73
  64.900        64
  65.000        90
  65.100        75
  65.200        77
  65.300        59
  65.400        68
  65.500        79
  65.600        77
  65.700        86
  65.800        84
  65.900        88
  66.000        88
  66.100       104
  66.200       163
  66.300       432
  66.400      1115
  66.500       488
  66.600       600
  66.700       184
  66.800       134
  66.900        84
  67.000       116
  67.100       102
  67.200       112
  67.300       114
  67.400       108
  67.500       134
  67.600       228
  67.700       313
  67.800       630
  67.900      2926
  68.000      5140
  68.100      2180
  68.200      2294
  68.300       466
  68.400       225
  68.500       184
  68.600       136
  68.700       161
  68.800       176
  68.900       316
  69.000       823
  69.100      2937
  69.200      1183
  69.300      1513
  69.400       475
  69.500       156
  69.600       100
  69.700       106
  69.800        96
  69.900        75
  70.000        90
  70.100        72
  70.200        64
  70.300        79
  70.400        64
  70.500        77
  70.600        65
  70.700        44
  70.800        51
  70.900        42
  71.000        53
  71.100        56
  71.200        70
  71.300        50
  71.400        53
  71.500        53
  71.600        62
  71.700        51
  71.800        54
  71.900        47
  72.000        56
  72.100        62
  72.200        57
  72.300        79
  72.400        90
  72.500       228
  72.600       538
  72.700       187
  72.800       234
  72.900       108
  73.000        44
  73.100        56
  73.200        51
  73.300        44
  73.400        42
  73.500        50
  73.600        50
  73.700        46
  73.800        53
  73.900        53
  74.000        42
  74.100        64
  74.200        47
  74.300        49
  74.400        40
  74.500        49
  74.600        44
  74.700        53
  74.800        47
  74.900        59
  75.000        47
  75.100        47
  75.200        49
  75.300        51
  75.400        43
  75.500        43
  75.600        50
  75.700        72
  75.800        51
  75.900        38
  76.000        59
  76.100        39
  76.200        53
  76.300        59
  76.400        57
  76.500        54
  76.600        56
  76.700        92
  76.800       136
  76.900       424
  77.000       795
  77.100       313
  77.200       488
  77.300       198
  77.400        59
  77.500        56
  77.600        59
  77.700        47
  77.800        42
  77.900        49
  78.000        44
  78.100        50
  78.200        37
  78.300        54
  78.400        44
  78.500        31
  78.600        47
  78.700        47
  78.800        56
  78.900        51
  79.000        50
  79.100        53
  79.200        53
  79.300        33
  79.400        42
  79.500        44
  79.600        47
  79.700        43
  79.800        47
  79.900        32
  80.000        46
  80.100        39
  80.200        50
  80.300        44
  80.400        56
  80.500        40
  80.600        47
  80.700        38
  80.800        53
  80.900        42
  81.000        50
  81.100        43
  81.200        82
  81.300       176
  81.400       470
  81.500       207
  81.600       213
  81.700       187
  81.800        70
  81.900        56
  82.000        50
  82.100        65
  82.200        42
  82.300        38
  82.400        44
  82.500        38
  82.600        38
  82.700        54
  82.800        50
  82.900        46
  83.000        39
  83.100        46
  83.200        47
  83.300        34
  83.400        37
  83.500        40
  83.600        40
  83.700        34
  83.800        38
  83.900        56
  84.000        51
  84.100        47
  84.200        42
  84.300        40
  84.400        51
  84.500        46
  84.600        53
  84.700        34
  84.800        40
  84.900        38
  85.000        38
  85.100        46
  85.200        39
  85.300        38
  85.400        42
  85.500        36
  85.600        38
  85.700        53
  85.800        43
  85.900        38
  86.000        56
  86.100        49
  86.200        47
  86.300        42
  86.400        37
  86.500        53
  86.600        47
  86.700        51
  86.800        54
  86.900        47
  87.000        59
  87.100        46
  87.200        51
  87.300        50
  87.400        54
  87.500        50
  87.600        50
  87.700        56
  87.800        56
  87.900        49
  88.000        43
  88.100        40
  88.200        59
  88.300        50
  88.400        60
  88.500        50
  88.600        56
  88.700        62
  88.800        75
  88.900        54
  89.000        59
  89.100        86
  89.200       118
  89.300        94
  89.400       158
  89.500       361
  89.600      1505
  89.700      1162
  89.800       466
  89.900       858
  90.000       475
  90.100       156
  90.200        72
  90.300        75
  90.400        53
  90.500        65
  90.600        62
  90.700        64
  90.800        65
  90.900        50
  91.000        67
  91.100        65
  91.200        50
  91.300        57
  91.400        42
  91.500        56
  91.600        56
  91.700        57
  91.800        62
  91.900        50
  92.000        53
  92.100        65
  92.200        72
  92.300        65
  92.400        77
  92.500        84
  92.600        96
  92.700       262
  92.800       650
  92.900       331
  93.000       182
  93.100       342
  93.200       182
  93.300        84
  93.400        62
  93.500        70
  93.600        72
  93.700        72
  93.800        62
  93.900        49
  94.000        57
  94.100        64
  94.200        57
  94.300        65
  94.400        62
  94.500        73
  94.600        82
  94.700        68
  94.800       108
  94.900       110
  95.000       129
  95.100       201
  95.200       510
  95.300      1681
  95.400      1069
  95.500       441
  95.600       806
  95.700       676
  95.800       219
  95.900       114
  96.000        88
  96.100        84
  96.200        70
  96.300        70
  96.400        56
  96.500        62
  96.600        75
  96.700        62
  96.800        75
  96.900        72
  97.000        57
  97.100        53
  97.200        67
  97.300        53
  97.400        60
  97.500        53
  97.600        60
  97.700        53
  97.800        65
  97.900        65
  98.000        88
  98.100        77
  98.200        79
  98.300        90
  98.400       100
  98.500       216
  98.600       812
  98.700       620
  98.800       222
  98.900       361
  99.000       506
  99.100       176
  99.200        90
  99.300        70
  99.400        77
  99.500        75
  99.600        70
  99.700        59
  99.800        79
  99.900        67
 100.000        54
 100.100        53
 100.200        57
 100.300        62
 100.400        54
 100.500        46
 100.600        39
 100.700        54
 100.800        56
 100.900        59
 101.000        54
 101.100        75
 101.200        60
 101.300        53
 101.400        56
 101.500        67
 101.600        47
 101.700        47
 101.800        51
 101.900        73
 102.000        64
 102.100        56
 102.200        67
 102.300        72
 102.400        67
 102.500        82
 102.600        81
 102.700       110
 102.800       182
 102.900       519
 103.000       645
 103.100       222
 103.200       216
 103.300       432
 103.400       237
 103.500       121
 103.600        96
 103.700       102
 103.800        94
 103.900       136
 104.000       259
 104.100       852
 104.200      1062
 104.300       361
 104.400       278
 104.500       590
 104.600       404
 104.700       153
 104.800        98
 104.900        79
 105.000        53
 105.100        73
 105.200        53
 105.300        72
 105.400        50
 105.500        72
 105.600        68
 105.700        67
 105.800        53
 105.900        65
 106.000        54
 106.100        62
 106.200        72
 106.300        60
 106.400        51
 106.500        59
 106.600        43
 106.700        53
 106.800        67
 106.900        51
 107.000        70
 107.100        64
 107.200        70
 107.300        98
 107.400       179
 107.500       216
 107.600       110
 107.700        92
 107.800       112
 107.900       136
 108.000        77
 108.100        59
 108.200        70
 108.300        60
 108.400        53
 108.500        49
 108.600        53
 108.700        56
 108.800        50
 108.900        62
 109.000        56
 109.100        56
 109.200        54
 109.300        47
 109.400        56
 109.500        56
 109.600        62
 109.700        62
 109.800        59
 109.900        82
 110.000       100
 110.100        88
 110.200       134
 110.300       306
 110.400       852
 110.500       538
 110.600       196
 110.700       196
 110.800       400
 110.900       299
 111.000       146
 111.100        96
 111.200        75
 111.300        64
 111.400        65
 111.500        72
 111.600        64
 111.700        50
 111.800        57
 111.900        50
 112.000        67
 112.100        64
 112.200        67
 112.300        47
 112.400        64
 112.500        72
 112.600        67
 112.700        36
 112.800        59
 112.900        53
 113.000        57
 113.100        62
 113.200        49
 113.300        54
 113.400        53
 113.500        54
 113.600        59
 113.700        51
 113.800        54
 113.900        62
 114.000        56
 114.100        51
 114.200        59
 114.300        62
 114.400        56
 114.500        56
 114.600        42
 114.700        62
 114.800        67
 114.900        70
 115.000        65
 115.100        67
 115.200        75
 115.300        67
 115.400        90
 115.500        98
 115.600        92
 115.700       102
 115.800        86
 115.900       123
 116.000       161
 116.100       306
 116.200       795
 116.300      2043
 116.400      1043
 116.500       404
 116.600       324
 116.700       718
 116.800       924
 116.900       349
 117.000       196
 117.100       108
 117.200        84
 117.300        70
 117.400        72
 117.500        73
 117.600        84
 117.700        60
 117.800        77
 117.900        72
 118.000        70
 118.100        77
 118.200        67
 118.300        56
 118.400        65
 118.500        44
 118.600        59
 118.700        65
 118.800        62
 118.900        56
 119.000        44
 119.100        59
 119.200        65
 119.300        51
 119.400        70
 119.500        51
 119.600        53
 119.700        64
 119.800        57
 119.900        56
 120.000        65
 120.100        70
 120.200        42
 120.300        51
 120.400        62
 120.500        72
 120.600        68
 120.700        73
 120.800        72
 120.900        82
 121.000        94
 121.100        82
 121.200        90
 121.300       118
 121.400       231
 121.500       479
 121.600      1128
 121.700       620
 121.800       234
 121.900       196
 122.000       289
 122.100       519
 122.200       372
 122.300       156
 122.400        86
 122.500        75
 122.600        79
 122.700        70
 122.800        62
 122.900        57
 123.000        49
 123.100        56
 123.200        59
 123.300        50
 123.400        65
 123.500        54
 123.600        53
 123.700        56
 123.800        38
 123.900        59
 124.000        51
 124.100        67
 124.200        64
 124.300        53
 124.400        64
 124.500        75
 124.600        59
 124.700        59
 124.800        56
 124.900        73
 125.000        77
 125.100       129
 125.200       207
 125.300       129
 125.400        81
 125.500        72
 125.600        60
 125.700       121
 125.800       118
 125.900        57
 126.000        60
 126.100        53
 126.200        44
 126.300        43
 126.400        53
 126.500        56
 126.600        53
 126.700        43
 126.800        53
 126.900        67
 127.000        53
 127.100        50
 127.200        51
 127.300        47
 127.400        47
 127.500        51
 127.600        49
 127.700        51
 127.800        59
 127.900        53
 128.000        49
 128.100        59
 128.200        54
 128.300        51
 128.400        47
 128.500        67
 128.600        65
 128.700        56
 128.800        43
 128.900        54
 129.000        67
 129.100        51
 129.200        65
 129.300        44
 129.400        42
 129.500        53
 129.600        56
 129.700        62
 129.800        57
 129.900        56
 130.000        56
 130.100        50
 130.200        59
 130.300        65
 130.400        65
 130.500        40
 130.600        53
 130.700        64
 130.800        56
 130.900        57
 131.000        47
 131.100        64
 131.200        54
 131.300        65
 131.400        56
 131.500        57
 131.600        64
 131.700        51
 131.800        60
 131.900        59
 132.000        49
 132.100        56
 132.200        62
 132.300        59
 132.400        54
 132.500        67
 132.600        72
 132.700        72
 132.800        65
 132.900        67
 133.000        73
 133.100        82
 133.200        67
 133.300        88
 133.400        96
 133.500        84
 133.600       106
 133.700       182
 133.800       306
 133.900       712
 134.000       882
 134.100       396
 134.200       237
 134.300       144
 134.400       158
 134.500       219
 134.600       400
 134.700       400
 134.800       213
 134.900       106
 135.000       100
 135.100        88
 135.200        68
 135.300        77
 135.400        53
 135.500        72
 135.600        75
 135.700        75
 135.800        82
 135.900        75
 136.000        64
 136.100        65
 136.200        84
 136.300        90
 136.400        96
 136.500       174
 136.600       225
 136.700       163
 136.800        96
 136.900        84
 137.000        88
 137.100        79
 137.200       132
 137.300       129
 137.400       108
 137.500       108
 137.600        79
 137.700        72
 137.800        75
 137.900        60
 138.000        67
 138.100        75
 138.200       106
 138.300        88
 138.400       148
 138.500       278
 138.600       324
 138.700       204
 138.800       121
 138.900        82
 139.000        90
 139.100       100
 139.200       134
 139.300       184
 139.400       176
 139.500       114
 139.600        67
 139.700        75
 139.800        64
 139.900        72
 140.000        77
 140.100        53
 140.200        65
 140.300        67
 140.400        75
 140.500        53
 140.600        59
 140.700        65
 140.800        59
 140.900        56
 141.000        62
 141.100        59
 141.200        67
 141.300        67
 141.400        72
 141.500        50
 141.600        72
 141.700        73
 141.800        73
 141.900        62
 142.000        65
 142.100        72
 142.200        79
 142.300        88
 142.400        77
 142.500        77
 142.600       129
 142.700       136
 142.800       240
 142.900       488
 143.000       660
 143.100       441
 143.200       231
 143.300       161
 143.400       129
 143.500       112
 143.600       116
 143.700       198
 143.800       338
 143.900       299
 144.000       216
 144.100       116
 144.200        90
 144.300        86
 144.400        77
 144.500        82
 144.600        81
 144.700        72
 144.800        62
 144.900        79
 145.000        73
 145.100        65
 145.200        86
 145.300        67
 145.400        68
 145.500        54
 145.600        65
 145.700        65
 145.800        67
 145.900        59
 146.000        70
 146.100        59
 146.200        56
 146.300        68
 146.400        64
 146.500        62
 146.600        77
 146.700        64
 146.800        62
 146.900        79
 147.000        72
 147.100        46
 147.200        56
 147.300        57
 147.400        68
 147.500        62
 147.600        60
 147.700        77
 147.800        65
 147.900        56
 148.000        70
 148.100        64
 148.200        68
 148.300        67
 148.400        62
 148.500        53
 148.600        70
 148.700        68
 148.800        62
 148.900        72
 149.000        59
 149.100        62
 149.200        65
 149.300        65
 149.400        72
 149.500        67
 149.600        47
 149.700        70
 149.800        56
 149.900        77
 150.000        65